key_resp.keys,key_resp.rt,key_resp_2.keys,key_resp_2.rt,trials_2.thisRepN,trials_2.thisTrialN,trials_2.thisN,trials_2.thisIndex,trials_2.ran,trialcatalan,participant ID,date,expName,psychopyVersion,OS,frameRate,key_resp_3.keys,key_resp_3.rt,key_resp_4.keys,key_resp_4.rt,trial_randomizer.thisRepN,trial_randomizer.thisTrialN,trial_randomizer.thisN,trial_randomizer.thisIndex,trial_randomizer.ran,fillertarget,stress,wordcatalan,verbcatalan,rand_12,block_randomizer.thisRepN,block_randomizer.thisTrialN,block_randomizer.thisN,block_randomizer.thisIndex,block_randomizer.ran,condsFile,key_resp_5.keys,key_resp_5.rt,mainTrialRep.thisRepN,mainTrialRep.thisTrialN,mainTrialRep.thisN,mainTrialRep.thisIndex,mainTrialRep.ran,trial_randomizer2.thisRepN,trial_randomizer2.thisTrialN,trial_randomizer2.thisN,trial_randomizer2.thisIndex,trial_randomizer2.ran,block_randomizer2.thisRepN,block_randomizer2.thisTrialN,block_randomizer2.thisN,block_randomizer2.thisIndex,block_randomizer2.ran
space,349.5967,space,8.2362,0,0,0,1,1,"""Depèn de la temporada"" —explica seriòs.",,2023-02-18_09h51.24.034,catalan_exp2,2022.1.4,Win32,29.9832094,,,,,,,,,,,,,,,,,,,,,,,,,,,,,,,,,,,,,
,,space,4.9619,0,1,1,2,1,"""Voldria una mica de cafè"" —pensa complaguda.",,2023-02-18_09h51.24.034,catalan_exp2,2022.1.4,Win32,29.9832094,,,,,,,,,,,,,,,,,,,,,,,,,,,,,,,,,,,,,
,,space,5.2401,0,2,2,0,1,"""Ha regalat un pastís al seu nebot"" —va pensar confiat.",,2023-02-18_09h51.24.034,catalan_exp2,2022.1.4,Win32,29.9832094,,,,,,,,,,,,,,,,,,,,,,,,,,,,,,,,,,,,,
,,space,3.8217,0,3,3,3,1,"""T'estimo molt"" —va sospirar content.",,2023-02-18_09h51.24.034,catalan_exp2,2022.1.4,Win32,29.9832094,,,,,,,,,,,,,,,,,,,,,,,,,,,,,,,,,,,,,
,,,,,,,,,,,2023-02-18_09h51.24.034,catalan_exp2,2022.1.4,Win32,29.9832094,space,3.6341,space,7.2662,0,0,0,3,1,target,ultimate,"""El president de l'estat està malalt"" —va disseminar prematura.",disseminar,1,,,,,,,,,,,,,,,,,,,,,,,
,,,,,,,,,,,2023-02-18_09h51.24.034,catalan_exp2,2022.1.4,Win32,29.9832094,,,space,4.9351,0,1,1,7,1,target,ultimate,"""És culpa teva"" —li va recriminar seriosa.",recriminar,1,,,,,,,,,,,,,,,,,,,,,,,
,,,,,,,,,,,2023-02-18_09h51.24.034,catalan_exp2,2022.1.4,Win32,29.9832094,,,space,5.0699,0,2,2,2,1,target,penultimate,"""Aquest no és el meu número de telèfon"" —la descamina complagut.",descaminar,1,,,,,,,,,,,,,,,,,,,,,,,
,,,,,,,,,,,2023-02-18_09h51.24.034,catalan_exp2,2022.1.4,Win32,29.9832094,,,space,4.6985,0,3,3,1,1,target,ultimate,"""Amb la pluja el vent és molt fort"" —va determinar complaguda.",determinar,1,,,,,,,,,,,,,,,,,,,,,,,
,,,,,,,,,,,2023-02-18_09h51.24.034,catalan_exp2,2022.1.4,Win32,29.9832094,,,space,4.5003,0,4,4,6,1,target,penultimate,"""Confirmin la cita per demà"" —les encamina tímida.",encaminar,1,,,,,,,,,,,,,,,,,,,,,,,
,,,,,,,,,,,2023-02-18_09h51.24.034,catalan_exp2,2022.1.4,Win32,29.9832094,,,space,4.4744,0,5,5,11,1,target,ultimate,"""Van entrar sense demanar permís"" —les va incriminar confiat.",incriminar,1,,,,,,,,,,,,,,,,,,,,,,,
,,,,,,,,,,,2023-02-18_09h51.24.034,catalan_exp2,2022.1.4,Win32,29.9832094,,,space,4.3389,0,6,6,12,1,target,penultimate,"""No hi haurà més bestioles"" —extermina complaguda.",exterminar,1,,,,,,,,,,,,,,,,,,,,,,,
,,,,,,,,,,,2023-02-18_09h51.24.034,catalan_exp2,2022.1.4,Win32,29.9832094,,,space,3.7038,0,7,7,8,1,target,penultimate,"""Aquest té menys sucre"" —discrimina tímid.",discriminar,1,,,,,,,,,,,,,,,,,,,,,,,
,,,,,,,,,,,2023-02-18_09h51.24.034,catalan_exp2,2022.1.4,Win32,29.9832094,,,space,4.4553,0,8,8,9,1,target,ultimate,"""No puc cuinar sense cremar el menjar"" —es va desanimar seriós.",desanimar,1,,,,,,,,,,,,,,,,,,,,,,,
,,,,,,,,,,,2023-02-18_09h51.24.034,catalan_exp2,2022.1.4,Win32,29.9832094,,,space,4.2001,0,9,9,13,1,target,ultimate,"""Retrat d'un home trist"" —va denominar concret.",denominar,1,,,,,,,,,,,,,,,,,,,,,,,
,,,,,,,,,,,2023-02-18_09h51.24.034,catalan_exp2,2022.1.4,Win32,29.9832094,,,space,4.2649,0,10,10,4,1,target,penultimate,"""Escriguin la resposta"" —els examina clarament.",examinar,1,,,,,,,,,,,,,,,,,,,,,,,
,,,,,,,,,,,2023-02-18_09h51.24.034,catalan_exp2,2022.1.4,Win32,29.9832094,,,space,3.6716,0,11,11,10,1,target,penultimate,"""No són necessaris"" —elimina segura.",eliminar,1,,,,,,,,,,,,,,,,,,,,,,,
,,,,,,,,,,,2023-02-18_09h51.24.034,catalan_exp2,2022.1.4,Win32,29.9832094,,,space,4.4721,0,12,12,5,1,target,ultimate,"""Acabo de comprar aquest llum"" —va il·luminar content.",illuminar,1,,,,,,,,,,,,,,,,,,,,,,,
,,,,,,,,,,,2023-02-18_09h51.24.034,catalan_exp2,2022.1.4,Win32,29.9832094,,,space,4.2101,0,13,13,0,1,target,penultimate,"""No m'agrada el te de camamilla"" —abomina plena.",abominar,1,,,,,,,,,,,,,,,,,,,,,,,
,,,,,,,,,,,2023-02-18_09h51.24.034,catalan_exp2,2022.1.4,Win32,29.9832094,,,,,,,,,,,,,,,0,0,0,0,1,main_trial_block1.xlsx,,,,,,,,,,,,,,,,,
,,,,,,,,,,,2023-02-18_09h51.24.034,catalan_exp2,2022.1.4,Win32,29.9832094,,,space,4.9173,0,0,0,2,1,target,ultimate,"""Aquest és el camí més curt"" —la va descaminar complagut.",descaminar,2,,,,,,,,,,,,,,,,,,,,,,,
,,,,,,,,,,,2023-02-18_09h51.24.034,catalan_exp2,2022.1.4,Win32,29.9832094,,,space,4.0649,0,1,1,5,1,target,penultimate,"""Bon Nadal a tots"" —il·lumina content.",illuminar,2,,,,,,,,,,,,,,,,,,,,,,,
,,,,,,,,,,,2023-02-18_09h51.24.034,catalan_exp2,2022.1.4,Win32,29.9832094,,,space,4.1083,0,2,2,4,1,target,ultimate,"""Facin aquesta equació"" —els va examinar clarament.",examinar,2,,,,,,,,,,,,,,,,,,,,,,,
,,,,,,,,,,,2023-02-18_09h51.24.034,catalan_exp2,2022.1.4,Win32,29.9832094,,,space,4.0238,0,3,3,7,1,target,penultimate,"""No m'agrada que em truquis"" —li recrimina seriosa.",recriminar,2,,,,,,,,,,,,,,,,,,,,,,,
,,,,,,,,,,,2023-02-18_09h51.24.034,catalan_exp2,2022.1.4,Win32,29.9832094,,,space,4.4322,0,4,4,11,1,target,penultimate,"""Vostès són les culpables"" —les incrimina confiat.",incriminar,2,,,,,,,,,,,,,,,,,,,,,,,
,,,,,,,,,,,2023-02-18_09h51.24.034,catalan_exp2,2022.1.4,Win32,29.9832094,,,space,4.703,0,5,5,0,1,target,ultimate,"""No m'agraden gens les curses de braus"" —va abominar plena.",abominar,2,,,,,,,,,,,,,,,,,,,,,,,
,,,,,,,,,,,2023-02-18_09h51.24.034,catalan_exp2,2022.1.4,Win32,29.9832094,,,space,4.1003,0,6,6,10,1,target,ultimate,"""Érem a casa a l'hora del crim"" —va eliminar segura.",eliminar,2,,,,,,,,,,,,,,,,,,,,,,,
,,,,,,,,,,,2023-02-18_09h51.24.034,catalan_exp2,2022.1.4,Win32,29.9832094,,,space,4.2386,0,7,7,13,1,target,penultimate,"""Aquest gen es diu beta"" —denomina concret.",denominar,2,,,,,,,,,,,,,,,,,,,,,,,
,,,,,,,,,,,2023-02-18_09h51.24.034,catalan_exp2,2022.1.4,Win32,29.9832094,,,space,4.0385,0,8,8,9,1,target,penultimate,"""No passaré mai l'examen"" —es desanima seriós.",desanimar,2,,,,,,,,,,,,,,,,,,,,,,,
,,,,,,,,,,,2023-02-18_09h51.24.034,catalan_exp2,2022.1.4,Win32,29.9832094,,,space,5.5621,0,9,9,3,1,target,penultimate,"""La senyora Martí renuncia al seu càrrec"" —dissemina prematura.",disseminar,2,,,,,,,,,,,,,,,,,,,,,,,
,,,,,,,,,,,2023-02-18_09h51.24.034,catalan_exp2,2022.1.4,Win32,29.9832094,,,space,4.4382,0,10,10,12,1,target,ultimate,"""Aquest verí va molt bé"" —va exterminar complaguda.",exterminar,2,,,,,,,,,,,,,,,,,,,,,,,
,,,,,,,,,,,2023-02-18_09h51.24.034,catalan_exp2,2022.1.4,Win32,29.9832094,,,space,4.4058,0,11,11,1,1,target,penultimate,"""La massa de l'àtom és mesurable"" —determina complaguda.",determinar,2,,,,,,,,,,,,,,,,,,,,,,,
,,,,,,,,,,,2023-02-18_09h51.24.034,catalan_exp2,2022.1.4,Win32,29.9832094,,,space,3.922,0,12,12,8,1,target,ultimate,"""Aquest és més fort"" —va discriminar tímid.",discriminar,2,,,,,,,,,,,,,,,,,,,,,,,
,,,,,,,,,,,2023-02-18_09h51.24.034,catalan_exp2,2022.1.4,Win32,29.9832094,,,space,3.8881,0,13,13,6,1,target,ultimate,"""Llegiu aquests articles"" —les va encaminar tímida.",encaminar,2,,,,,,,,,,,,,,,,,,,,,,,
,,,,,,,,,,,2023-02-18_09h51.24.034,catalan_exp2,2022.1.4,Win32,29.9832094,,,,,,,,,,,,,,,0,1,1,1,1,main_trial_block2.xlsx,,,,,,,,,,,,,,,,,
,,,,,,,,,,,2023-02-18_09h51.24.034,catalan_exp2,2022.1.4,Win32,29.9832094,,,,,,,,,,,,,,,,,,,,,space,3.8148,0,0,0,0,1,,,,,,,,,,
,,,,,,,,,,,2023-02-18_09h51.24.034,catalan_exp2,2022.1.4,Win32,29.9832094,,,space,6.2269,0,0,0,12,1,target,ultimate,"""Aquest verí va molt bé"" —va exterminar complaguda.",exterminar,2,,,,,,,,,,,,,,,,,,,,,,,
,,,,,,,,,,,2023-02-18_09h51.24.034,catalan_exp2,2022.1.4,Win32,29.9832094,,,space,4.0371,0,1,1,9,1,target,penultimate,"""No passaré mai l'examen"" —es desanima seriós.",desanimar,2,,,,,,,,,,,,,,,,,,,,,,,
,,,,,,,,,,,2023-02-18_09h51.24.034,catalan_exp2,2022.1.4,Win32,29.9832094,,,space,3.7983,0,2,2,6,1,target,ultimate,"""Llegiu aquests articles"" —les va encaminar tímida.",encaminar,2,,,,,,,,,,,,,,,,,,,,,,,
,,,,,,,,,,,2023-02-18_09h51.24.034,catalan_exp2,2022.1.4,Win32,29.9832094,,,space,3.3835,0,3,3,5,1,target,penultimate,"""Bon Nadal a tots"" —il·lumina content.",illuminar,2,,,,,,,,,,,,,,,,,,,,,,,
,,,,,,,,,,,2023-02-18_09h51.24.034,catalan_exp2,2022.1.4,Win32,29.9832094,,,space,4.0422,0,4,4,7,1,target,penultimate,"""No m'agrada que em truquis"" —li recrimina seriosa.",recriminar,2,,,,,,,,,,,,,,,,,,,,,,,
,,,,,,,,,,,2023-02-18_09h51.24.034,catalan_exp2,2022.1.4,Win32,29.9832094,,,space,4.1759,0,5,5,10,1,target,ultimate,"""Érem a casa a l'hora del crim"" —va eliminar segura.",eliminar,2,,,,,,,,,,,,,,,,,,,,,,,
,,,,,,,,,,,2023-02-18_09h51.24.034,catalan_exp2,2022.1.4,Win32,29.9832094,,,space,5.564,0,6,6,3,1,target,penultimate,"""La senyora Martí renuncia al seu càrrec"" —dissemina prematura.",disseminar,2,,,,,,,,,,,,,,,,,,,,,,,
,,,,,,,,,,,2023-02-18_09h51.24.034,catalan_exp2,2022.1.4,Win32,29.9832094,,,space,4.92,0,7,7,13,1,target,penultimate,"""Aquest gen es diu beta"" —denomina concret.",denominar,2,,,,,,,,,,,,,,,,,,,,,,,
,,,,,,,,,,,2023-02-18_09h51.24.034,catalan_exp2,2022.1.4,Win32,29.9832094,,,space,5.121,0,8,8,0,1,target,ultimate,"""No m'agraden gens les curses de braus"" —va abominar plena.",abominar,2,,,,,,,,,,,,,,,,,,,,,,,
,,,,,,,,,,,2023-02-18_09h51.24.034,catalan_exp2,2022.1.4,Win32,29.9832094,,,space,4.9405,0,9,9,2,1,target,ultimate,"""Aquest és el camí més curt"" —la va descaminar complagut.",descaminar,2,,,,,,,,,,,,,,,,,,,,,,,
,,,,,,,,,,,2023-02-18_09h51.24.034,catalan_exp2,2022.1.4,Win32,29.9832094,,,space,4.0909,0,10,10,1,1,target,penultimate,"""La massa de l'àtom és mesurable"" —determina complaguda.",determinar,2,,,,,,,,,,,,,,,,,,,,,,,
,,,,,,,,,,,2023-02-18_09h51.24.034,catalan_exp2,2022.1.4,Win32,29.9832094,,,space,4.1736,0,11,11,11,1,target,penultimate,"""Vostès són les culpables"" —les incrimina confiat.",incriminar,2,,,,,,,,,,,,,,,,,,,,,,,
,,,,,,,,,,,2023-02-18_09h51.24.034,catalan_exp2,2022.1.4,Win32,29.9832094,,,space,5.3772,0,12,12,8,1,target,ultimate,"""Aquest és més fort"" —va discriminar tímid.",discriminar,2,,,,,,,,,,,,,,,,,,,,,,,
,,,,,,,,,,,2023-02-18_09h51.24.034,catalan_exp2,2022.1.4,Win32,29.9832094,,,space,4.5997,0,13,13,4,1,target,ultimate,"""Facin aquesta equació"" —els va examinar clarament.",examinar,2,,,,,,,,,,,,,,,,,,,,,,,
,,,,,,,,,,,2023-02-18_09h51.24.034,catalan_exp2,2022.1.4,Win32,29.9832094,,,,,,,,,,,,,,,0,0,0,1,1,main_trial_block2.xlsx,,,,,,,,,,,,,,,,,
,,,,,,,,,,,2023-02-18_09h51.24.034,catalan_exp2,2022.1.4,Win32,29.9832094,,,space,4.4046,0,0,0,2,1,target,penultimate,"""Aquest no és el meu número de telèfon"" —la descamina complagut.",descaminar,1,,,,,,,,,,,,,,,,,,,,,,,
,,,,,,,,,,,2023-02-18_09h51.24.034,catalan_exp2,2022.1.4,Win32,29.9832094,,,space,3.9939,0,1,1,12,1,target,penultimate,"""No hi haurà més bestioles"" —extermina complaguda.",exterminar,1,,,,,,,,,,,,,,,,,,,,,,,
,,,,,,,,,,,2023-02-18_09h51.24.034,catalan_exp2,2022.1.4,Win32,29.9832094,,,space,3.8409,0,2,2,8,1,target,penultimate,"""Aquest té menys sucre"" —discrimina tímid.",discriminar,1,,,,,,,,,,,,,,,,,,,,,,,
,,,,,,,,,,,2023-02-18_09h51.24.034,catalan_exp2,2022.1.4,Win32,29.9832094,,,space,4.5359,0,3,3,1,1,target,ultimate,"""Amb la pluja el vent és molt fort"" —va determinar complaguda.",determinar,1,,,,,,,,,,,,,,,,,,,,,,,
,,,,,,,,,,,2023-02-18_09h51.24.034,catalan_exp2,2022.1.4,Win32,29.9832094,,,space,3.9448,0,4,4,0,1,target,penultimate,"""No m'agrada el te de camamilla"" —abomina plena.",abominar,1,,,,,,,,,,,,,,,,,,,,,,,
,,,,,,,,,,,2023-02-18_09h51.24.034,catalan_exp2,2022.1.4,Win32,29.9832094,,,space,4.4466,0,5,5,3,1,target,ultimate,"""El president de l'estat està malalt"" —va disseminar prematura.",disseminar,1,,,,,,,,,,,,,,,,,,,,,,,
,,,,,,,,,,,2023-02-18_09h51.24.034,catalan_exp2,2022.1.4,Win32,29.9832094,,,space,3.641,0,6,6,10,1,target,penultimate,"""No són necessaris"" —elimina segura.",eliminar,1,,,,,,,,,,,,,,,,,,,,,,,
,,,,,,,,,,,2023-02-18_09h51.24.034,catalan_exp2,2022.1.4,Win32,29.9832094,,,space,4.0846,0,7,7,7,1,target,ultimate,"""És culpa teva"" —li va recriminar seriosa.",recriminar,1,,,,,,,,,,,,,,,,,,,,,,,
,,,,,,,,,,,2023-02-18_09h51.24.034,catalan_exp2,2022.1.4,Win32,29.9832094,,,space,4.5795,0,8,8,11,1,target,ultimate,"""Van entrar sense demanar permís"" —les va incriminar confiat.",incriminar,1,,,,,,,,,,,,,,,,,,,,,,,
,,,,,,,,,,,2023-02-18_09h51.24.034,catalan_exp2,2022.1.4,Win32,29.9832094,,,space,4.3046,0,9,9,4,1,target,penultimate,"""Escriguin la resposta"" —els examina clarament.",examinar,1,,,,,,,,,,,,,,,,,,,,,,,
,,,,,,,,,,,2023-02-18_09h51.24.034,catalan_exp2,2022.1.4,Win32,29.9832094,,,space,4.5203,0,10,10,5,1,target,ultimate,"""Acabo de comprar aquest llum"" —va il·luminar content.",illuminar,1,,,,,,,,,,,,,,,,,,,,,,,
,,,,,,,,,,,2023-02-18_09h51.24.034,catalan_exp2,2022.1.4,Win32,29.9832094,,,space,4.9259,0,11,11,9,1,target,ultimate,"""No puc cuinar sense cremar el menjar"" —es va desanimar seriós.",desanimar,1,,,,,,,,,,,,,,,,,,,,,,,
,,,,,,,,,,,2023-02-18_09h51.24.034,catalan_exp2,2022.1.4,Win32,29.9832094,,,space,4.2111,0,12,12,6,1,target,penultimate,"""Confirmin la cita per demà"" —les encamina tímida.",encaminar,1,,,,,,,,,,,,,,,,,,,,,,,
,,,,,,,,,,,2023-02-18_09h51.24.034,catalan_exp2,2022.1.4,Win32,29.9832094,,,space,4.1253,0,13,13,13,1,target,ultimate,"""Retrat d'un home trist"" —va denominar concret.",denominar,1,,,,,,,,,,,,,,,,,,,,,,,
,,,,,,,,,,,2023-02-18_09h51.24.034,catalan_exp2,2022.1.4,Win32,29.9832094,,,,,,,,,,,,,,,0,1,1,0,1,main_trial_block1.xlsx,,,,,,,,,,,,,,,,,
,,,,,,,,,,,2023-02-18_09h51.24.034,catalan_exp2,2022.1.4,Win32,29.9832094,,,,,,,,,,,,,,,,,,,,,space,4.2312,1,0,1,0,1,,,,,,,,,,
,,,,,,,,,,,2023-02-18_09h51.24.034,catalan_exp2,2022.1.4,Win32,29.9832094,,,space,4.2074,,,,,,target,ultimate,"""Aquest és el camí més curt"" —la va descaminar complagut.",descaminar,2,,,,,,,,,,,,,,0,0,0,2,1,,,,,
,,,,,,,,,,,2023-02-18_09h51.24.034,catalan_exp2,2022.1.4,Win32,29.9832094,,,space,3.8372,,,,,,target,penultimate,"""No passaré mai l'examen"" —es desanima seriós.",desanimar,2,,,,,,,,,,,,,,0,1,1,9,1,,,,,
,,,,,,,,,,,2023-02-18_09h51.24.034,catalan_exp2,2022.1.4,Win32,29.9832094,,,space,4.0618,,,,,,target,ultimate,"""Llegiu aquests articles"" —les va encaminar tímida.",encaminar,2,,,,,,,,,,,,,,0,2,2,6,1,,,,,
,,,,,,,,,,,2023-02-18_09h51.24.034,catalan_exp2,2022.1.4,Win32,29.9832094,,,space,5.1901,,,,,,target,ultimate,"""Érem a casa a l'hora del crim"" —va eliminar segura.",eliminar,2,,,,,,,,,,,,,,0,3,3,10,1,,,,,
,,,,,,,,,,,2023-02-18_09h51.24.034,catalan_exp2,2022.1.4,Win32,29.9832094,,,space,3.8983,,,,,,target,penultimate,"""No m'agrada que em truquis"" —li recrimina seriosa.",recriminar,2,,,,,,,,,,,,,,0,4,4,7,1,,,,,
,,,,,,,,,,,2023-02-18_09h51.24.034,catalan_exp2,2022.1.4,Win32,29.9832094,,,space,4.7545,,,,,,target,penultimate,"""La senyora Martí renuncia al seu càrrec"" —dissemina prematura.",disseminar,2,,,,,,,,,,,,,,0,5,5,3,1,,,,,
,,,,,,,,,,,2023-02-18_09h51.24.034,catalan_exp2,2022.1.4,Win32,29.9832094,,,space,3.5127,,,,,,target,ultimate,"""Aquest és més fort"" —va discriminar tímid.",discriminar,2,,,,,,,,,,,,,,0,6,6,8,1,,,,,
,,,,,,,,,,,2023-02-18_09h51.24.034,catalan_exp2,2022.1.4,Win32,29.9832094,,,space,3.522,,,,,,target,penultimate,"""Bon Nadal a tots"" —il·lumina content.",illuminar,2,,,,,,,,,,,,,,0,7,7,5,1,,,,,
,,,,,,,,,,,2023-02-18_09h51.24.034,catalan_exp2,2022.1.4,Win32,29.9832094,,,space,3.8507,,,,,,target,penultimate,"""Aquest gen es diu beta"" —denomina concret.",denominar,2,,,,,,,,,,,,,,0,8,8,13,1,,,,,
,,,,,,,,,,,2023-02-18_09h51.24.034,catalan_exp2,2022.1.4,Win32,29.9832094,,,space,4.8015,,,,,,target,penultimate,"""La massa de l'àtom és mesurable"" —determina complaguda.",determinar,2,,,,,,,,,,,,,,0,9,9,1,1,,,,,
,,,,,,,,,,,2023-02-18_09h51.24.034,catalan_exp2,2022.1.4,Win32,29.9832094,,,space,4.1807,,,,,,target,ultimate,"""No m'agraden gens les curses de braus"" —va abominar plena.",abominar,2,,,,,,,,,,,,,,0,10,10,0,1,,,,,
,,,,,,,,,,,2023-02-18_09h51.24.034,catalan_exp2,2022.1.4,Win32,29.9832094,,,space,3.6778,,,,,,target,penultimate,"""Vostès són les culpables"" —les incrimina confiat.",incriminar,2,,,,,,,,,,,,,,0,11,11,11,1,,,,,
,,,,,,,,,,,2023-02-18_09h51.24.034,catalan_exp2,2022.1.4,Win32,29.9832094,,,space,3.8424,,,,,,target,ultimate,"""Facin aquesta equació"" —els va examinar clarament.",examinar,2,,,,,,,,,,,,,,0,12,12,4,1,,,,,
,,,,,,,,,,,2023-02-18_09h51.24.034,catalan_exp2,2022.1.4,Win32,29.9832094,,,space,4.3339,,,,,,target,ultimate,"""Aquest verí va molt bé"" —va exterminar complaguda.",exterminar,2,,,,,,,,,,,,,,0,13,13,12,1,,,,,
,,,,,,,,,,,2023-02-18_09h51.24.034,catalan_exp2,2022.1.4,Win32,29.9832094,,,,,,,,,,,,,,,,,,,,main_trial_block2.xlsx,,,,,,,,,,,,,0,0,0,1,1
,,,,,,,,,,,2023-02-18_09h51.24.034,catalan_exp2,2022.1.4,Win32,29.9832094,,,space,4.6678,,,,,,target,penultimate,"""Aquest té menys sucre"" —discrimina tímid.",discriminar,1,,,,,,,,,,,,,,0,0,0,8,1,,,,,
,,,,,,,,,,,2023-02-18_09h51.24.034,catalan_exp2,2022.1.4,Win32,29.9832094,,,space,4.1836,,,,,,target,penultimate,"""Aquest no és el meu número de telèfon"" —la descamina complagut.",descaminar,1,,,,,,,,,,,,,,0,1,1,2,1,,,,,
,,,,,,,,,,,2023-02-18_09h51.24.034,catalan_exp2,2022.1.4,Win32,29.9832094,,,space,4.1515,,,,,,target,penultimate,"""Confirmin la cita per demà"" —les encamina tímida.",encaminar,1,,,,,,,,,,,,,,0,2,2,6,1,,,,,
,,,,,,,,,,,2023-02-18_09h51.24.034,catalan_exp2,2022.1.4,Win32,29.9832094,,,space,4.2289,,,,,,target,penultimate,"""No m'agrada el te de camamilla"" —abomina plena.",abominar,1,,,,,,,,,,,,,,0,3,3,0,1,,,,,
,,,,,,,,,,,2023-02-18_09h51.24.034,catalan_exp2,2022.1.4,Win32,29.9832094,,,space,4.3205,,,,,,target,penultimate,"""Escriguin la resposta"" —els examina clarament.",examinar,1,,,,,,,,,,,,,,0,4,4,4,1,,,,,
,,,,,,,,,,,2023-02-18_09h51.24.034,catalan_exp2,2022.1.4,Win32,29.9832094,,,space,3.6004,,,,,,target,ultimate,"""És culpa teva"" —li va recriminar seriosa.",recriminar,1,,,,,,,,,,,,,,0,5,5,7,1,,,,,
,,,,,,,,,,,2023-02-18_09h51.24.034,catalan_exp2,2022.1.4,Win32,29.9832094,,,space,4.2427,,,,,,target,ultimate,"""No puc cuinar sense cremar el menjar"" —es va desanimar seriós.",desanimar,1,,,,,,,,,,,,,,0,6,6,9,1,,,,,
,,,,,,,,,,,2023-02-18_09h51.24.034,catalan_exp2,2022.1.4,Win32,29.9832094,,,space,4.7271,,,,,,target,ultimate,"""El president de l'estat està malalt"" —va disseminar prematura.",disseminar,1,,,,,,,,,,,,,,0,7,7,3,1,,,,,
,,,,,,,,,,,2023-02-18_09h51.24.034,catalan_exp2,2022.1.4,Win32,29.9832094,,,space,3.5881,,,,,,target,penultimate,"""No són necessaris"" —elimina segura.",eliminar,1,,,,,,,,,,,,,,0,8,8,10,1,,,,,
,,,,,,,,,,,2023-02-18_09h51.24.034,catalan_exp2,2022.1.4,Win32,29.9832094,,,space,4.1671,,,,,,target,ultimate,"""Amb la pluja el vent és molt fort"" —va determinar complaguda.",determinar,1,,,,,,,,,,,,,,0,9,9,1,1,,,,,
,,,,,,,,,,,2023-02-18_09h51.24.034,catalan_exp2,2022.1.4,Win32,29.9832094,,,space,4.1569,,,,,,target,penultimate,"""No hi haurà més bestioles"" —extermina complaguda.",exterminar,1,,,,,,,,,,,,,,0,10,10,12,1,,,,,
,,,,,,,,,,,2023-02-18_09h51.24.034,catalan_exp2,2022.1.4,Win32,29.9832094,,,space,3.6946,,,,,,target,ultimate,"""Retrat d'un home trist"" —va denominar concret.",denominar,1,,,,,,,,,,,,,,0,11,11,13,1,,,,,
,,,,,,,,,,,2023-02-18_09h51.24.034,catalan_exp2,2022.1.4,Win32,29.9832094,,,space,4.5358,,,,,,target,ultimate,"""Van entrar sense demanar permís"" —les va incriminar confiat.",incriminar,1,,,,,,,,,,,,,,0,12,12,11,1,,,,,
,,,,,,,,,,,2023-02-18_09h51.24.034,catalan_exp2,2022.1.4,Win32,29.9832094,,,space,3.7754,,,,,,target,ultimate,"""Acabo de comprar aquest llum"" —va il·luminar content.",illuminar,1,,,,,,,,,,,,,,0,13,13,5,1,,,,,
,,,,,,,,,,,2023-02-18_09h51.24.034,catalan_exp2,2022.1.4,Win32,29.9832094,,,,,,,,,,,,,,,,,,,,main_trial_block1.xlsx,,,,,,,,,,,,,0,1,1,0,1
