key_resp.keys,key_resp.rt,key_resp_2.keys,key_resp_2.rt,trials_2.thisRepN,trials_2.thisTrialN,trials_2.thisN,trials_2.thisIndex,trials_2.ran,trialspanish,participant ID,date,expName,psychopyVersion,OS,frameRate,key_resp_3.keys,key_resp_3.rt,key_resp_4.keys,key_resp_4.rt,trials_randomizer.thisRepN,trials_randomizer.thisTrialN,trials_randomizer.thisN,trials_randomizer.thisIndex,trials_randomizer.ran,fillertarget,stress,wordspanish,verbspanish,rand_12,block_randomizer.thisRepN,block_randomizer.thisTrialN,block_randomizer.thisN,block_randomizer.thisIndex,block_randomizer.ran,condsFile,key_resp_5.keys,key_resp_5.rt,mainTrialReps.thisRepN,mainTrialReps.thisTrialN,mainTrialReps.thisN,mainTrialReps.thisIndex,mainTrialReps.ran,trials_randomizer2.thisRepN,trials_randomizer2.thisTrialN,trials_randomizer2.thisN,trials_randomizer2.thisIndex,trials_randomizer2.ran,block_randomizer2.thisRepN,block_randomizer2.thisTrialN,block_randomizer2.thisN,block_randomizer2.thisIndex,block_randomizer2.ran
space,2198.4998,space,6.9257,0,0,0,3,1,"""Te quiero mucho"" —suspiró contenta Teresa.",aes050,03-03-2023_19h45.32.452,spanish_exp2,2022.1.4,Win32,59.21013678,,,,,,,,,,,,,,,,,,,,,,,,,,,,,,,,,,,,,
,,space,6.0264,0,1,1,1,1,"""Depende del clima"" —respondió claramente.",aes050,03-03-2023_19h45.32.452,spanish_exp2,2022.1.4,Win32,59.21013678,,,,,,,,,,,,,,,,,,,,,,,,,,,,,,,,,,,,,
,,space,4.8674,0,2,2,2,1,"""Me gustaría un café"" —pienso complacido.",aes050,03-03-2023_19h45.32.452,spanish_exp2,2022.1.4,Win32,59.21013678,,,,,,,,,,,,,,,,,,,,,,,,,,,,,,,,,,,,,
,,space,4.6446,0,3,3,0,1,"""Le regaló una camiseta a su sobrino"" —digo contento.",aes050,03-03-2023_19h45.32.452,spanish_exp2,2022.1.4,Win32,59.21013678,,,,,,,,,,,,,,,,,,,,,,,,,,,,,,,,,,,,,
,,,,,,,,,,aes050,03-03-2023_19h45.32.452,spanish_exp2,2022.1.4,Win32,59.21013678,space,2.8103,space,5.2967,0,0,0,1,1,target,ultimate,"""Con la lluvia el viento es muy fuerte"" —determinó complacida.",determinar,1,,,,,,,,,,,,,,,,,,,,,,,
,,,,,,,,,,aes050,03-03-2023_19h45.32.452,spanish_exp2,2022.1.4,Win32,59.21013678,,,space,4.0157,0,1,1,4,1,target,penultimate,"""Escriban la respuesta"" —los examino seriamente.",examinar,1,,,,,,,,,,,,,,,,,,,,,,,
,,,,,,,,,,aes050,03-03-2023_19h45.32.452,spanish_exp2,2022.1.4,Win32,59.21013678,,,space,4.2677,0,2,2,8,1,target,penultimate,"""Este tiene menos azúcar"" —discrimino tímida.",discriminar,1,,,,,,,,,,,,,,,,,,,,,,,
,,,,,,,,,,aes050,03-03-2023_19h45.32.452,spanish_exp2,2022.1.4,Win32,59.21013678,,,space,5.2543,0,3,3,3,1,target,ultimate,"""El presidente del estado se encuentra enfermo"" —diseminó compungido.",diseminar,1,,,,,,,,,,,,,,,,,,,,,,,
,,,,,,,,,,aes050,03-03-2023_19h45.32.452,spanish_exp2,2022.1.4,Win32,59.21013678,,,space,4.5476,0,4,4,0,1,target,penultimate,"""No me gusta el té de manzanilla"" —abomino con certeza.",abominar,1,,,,,,,,,,,,,,,,,,,,,,,
,,,,,,,,,,aes050,03-03-2023_19h45.32.452,spanish_exp2,2022.1.4,Win32,59.21013678,,,space,4.5405,0,5,5,13,1,target,ultimate,"""Retrato de un hombre triste"" —lo denominó complacido. ",denominar,1,,,,,,,,,,,,,,,,,,,,,,,
,,,,,,,,,,aes050,03-03-2023_19h45.32.452,spanish_exp2,2022.1.4,Win32,59.21013678,,,space,5.1786,0,6,6,2,1,target,penultimate,"""Este no es mi número de teléfono"" —la descamino complacido.",descaminar,1,,,,,,,,,,,,,,,,,,,,,,,
,,,,,,,,,,aes050,03-03-2023_19h45.32.452,spanish_exp2,2022.1.4,Win32,59.21013678,,,space,4.6618,0,7,7,6,1,target,penultimate,"""Confirma la cita para mañana"" —le encamino con ilusión. ",encaminar,1,,,,,,,,,,,,,,,,,,,,,,,
,,,,,,,,,,aes050,03-03-2023_19h45.32.452,spanish_exp2,2022.1.4,Win32,59.21013678,,,space,4.1125,0,8,8,5,1,target,ultimate,"""Compré esta lámpara ayer"" —iluminó contenta.",iluminar,1,,,,,,,,,,,,,,,,,,,,,,,
,,,,,,,,,,aes050,03-03-2023_19h45.32.452,spanish_exp2,2022.1.4,Win32,59.21013678,,,space,4.9225,0,9,9,9,1,target,ultimate,"""No puedo cocinar sin quemar la comida"" —me desanimó compungida.",desanimar,1,,,,,,,,,,,,,,,,,,,,,,,
,,,,,,,,,,aes050,03-03-2023_19h45.32.452,spanish_exp2,2022.1.4,Win32,59.21013678,,,space,3.5832,0,10,10,10,1,target,penultimate,"""No son necesarios"" —los elimino segura.",eliminar,1,,,,,,,,,,,,,,,,,,,,,,,
,,,,,,,,,,aes050,03-03-2023_19h45.32.452,spanish_exp2,2022.1.4,Win32,59.21013678,,,space,3.9786,0,11,11,7,1,target,ultimate,"""Me robaron"" —les recriminó con intensidad.",recriminar,1,,,,,,,,,,,,,,,,,,,,,,,
,,,,,,,,,,aes050,03-03-2023_19h45.32.452,spanish_exp2,2022.1.4,Win32,59.21013678,,,space,4.9301,0,12,12,11,1,target,ultimate,"""Entraron sin pedir permiso"" —les incriminó seguro.",incriminar,1,,,,,,,,,,,,,,,,,,,,,,,
,,,,,,,,,,aes050,03-03-2023_19h45.32.452,spanish_exp2,2022.1.4,Win32,59.21013678,,,space,4.3209,0,13,13,12,1,target,penultimate,"""No habrá más cucarachas"" —extermino complacida.",exterminar,1,,,,,,,,,,,,,,,,,,,,,,,
,,,,,,,,,,aes050,03-03-2023_19h45.32.452,spanish_exp2,2022.1.4,Win32,59.21013678,,,,,,,,,,,,,,,0,0,0,0,1,main_trial_block1.xlsx,,,,,,,,,,,,,,,,,
,,,,,,,,,,aes050,03-03-2023_19h45.32.452,spanish_exp2,2022.1.4,Win32,59.21013678,,,space,3.8387,0,0,0,8,1,target,ultimate,"""Este es más fuerte"" —discriminó tímida.",discriminar,2,,,,,,,,,,,,,,,,,,,,,,,
,,,,,,,,,,aes050,03-03-2023_19h45.32.452,spanish_exp2,2022.1.4,Win32,59.21013678,,,space,4.4883,0,1,1,11,1,target,penultimate,"""Los Osvald, culpables"" —les incrimino seguro.",incriminar,2,,,,,,,,,,,,,,,,,,,,,,,
,,,,,,,,,,aes050,03-03-2023_19h45.32.452,spanish_exp2,2022.1.4,Win32,59.21013678,,,space,4.4473,0,2,2,9,1,target,penultimate,"""No puedo estudiar matemáticas"" —me desanimo compungida.",desanimar,2,,,,,,,,,,,,,,,,,,,,,,,
,,,,,,,,,,aes050,03-03-2023_19h45.32.452,spanish_exp2,2022.1.4,Win32,59.21013678,,,space,4.7117,0,3,3,3,1,target,penultimate,"""La directora Pérez renuncia a su cargo"" —disemino compungido.",diseminar,2,,,,,,,,,,,,,,,,,,,,,,,
,,,,,,,,,,aes050,03-03-2023_19h45.32.452,spanish_exp2,2022.1.4,Win32,59.21013678,,,space,4.4095,0,4,4,7,1,target,penultimate,"""No me gusta su conducta"" —les recrimino con intensidad.",recriminar,2,,,,,,,,,,,,,,,,,,,,,,,
,,,,,,,,,,aes050,03-03-2023_19h45.32.452,spanish_exp2,2022.1.4,Win32,59.21013678,,,space,4.2111,0,5,5,5,1,target,penultimate,"""Estas son las luces nuevas"" —ilumino contenta.",iluminar,2,,,,,,,,,,,,,,,,,,,,,,,
,,,,,,,,,,aes050,03-03-2023_19h45.32.452,spanish_exp2,2022.1.4,Win32,59.21013678,,,space,3.8263,0,6,6,10,1,target,ultimate,"""Tarjeta roja"" —los eliminó segura.",eliminar,2,,,,,,,,,,,,,,,,,,,,,,,
,,,,,,,,,,aes050,03-03-2023_19h45.32.452,spanish_exp2,2022.1.4,Win32,59.21013678,,,space,4.1438,0,7,7,0,1,target,ultimate,"""No me gustan las corridas"" —abominó con certeza.",abominar,2,,,,,,,,,,,,,,,,,,,,,,,
,,,,,,,,,,aes050,03-03-2023_19h45.32.452,spanish_exp2,2022.1.4,Win32,59.21013678,,,space,4.5101,0,8,8,12,1,target,ultimate,"""Este insecticida es muy eficaz"" —exterminó complacida.",exterminar,2,,,,,,,,,,,,,,,,,,,,,,,
,,,,,,,,,,aes050,03-03-2023_19h45.32.452,spanish_exp2,2022.1.4,Win32,59.21013678,,,space,4.6578,0,9,9,6,1,target,ultimate,"""Lee estos artículos"" —le encaminó con ilusión.",encaminar,2,,,,,,,,,,,,,,,,,,,,,,,
,,,,,,,,,,aes050,03-03-2023_19h45.32.452,spanish_exp2,2022.1.4,Win32,59.21013678,,,space,4.0519,0,10,10,4,1,target,ultimate,"""Desarrollen esta ecuación"" —los examinó seriamente.",examinar,2,,,,,,,,,,,,,,,,,,,,,,,
,,,,,,,,,,aes050,03-03-2023_19h45.32.452,spanish_exp2,2022.1.4,Win32,59.21013678,,,space,4.0345,0,11,11,13,1,target,penultimate,"""Se llamará beta"" —lo denomino complacido.",denominar,2,,,,,,,,,,,,,,,,,,,,,,,
,,,,,,,,,,aes050,03-03-2023_19h45.32.452,spanish_exp2,2022.1.4,Win32,59.21013678,,,space,4.9934,0,12,12,2,1,target,ultimate,"""Este es el camino más corto"" —la descaminó complacido.",descaminar,2,,,,,,,,,,,,,,,,,,,,,,,
,,,,,,,,,,aes050,03-03-2023_19h45.32.452,spanish_exp2,2022.1.4,Win32,59.21013678,,,space,6.8173,0,13,13,1,1,target,penultimate,"""La masa del átomo es medible"" —determino complacida.",determinar,2,,,,,,,,,,,,,,,,,,,,,,,
,,,,,,,,,,aes050,03-03-2023_19h45.32.452,spanish_exp2,2022.1.4,Win32,59.21013678,,,,,,,,,,,,,,,0,1,1,1,1,main_trial_block2.xlsx,,,,,,,,,,,,,,,,,
,,,,,,,,,,aes050,03-03-2023_19h45.32.452,spanish_exp2,2022.1.4,Win32,59.21013678,,,,,,,,,,,,,,,,,,,,,space,5.6375,0,0,0,0,1,,,,,,,,,,
,,,,,,,,,,aes050,03-03-2023_19h45.32.452,spanish_exp2,2022.1.4,Win32,59.21013678,,,space,5.0149,0,0,0,7,1,target,penultimate,"""No me gusta su conducta"" —les recrimino con intensidad.",recriminar,2,,,,,,,,,,,,,,,,,,,,,,,
,,,,,,,,,,aes050,03-03-2023_19h45.32.452,spanish_exp2,2022.1.4,Win32,59.21013678,,,space,3.8711,0,1,1,6,1,target,ultimate,"""Lee estos artículos"" —le encaminó con ilusión.",encaminar,2,,,,,,,,,,,,,,,,,,,,,,,
,,,,,,,,,,aes050,03-03-2023_19h45.32.452,spanish_exp2,2022.1.4,Win32,59.21013678,,,space,3.9666,0,2,2,0,1,target,ultimate,"""No me gustan las corridas"" —abominó con certeza.",abominar,2,,,,,,,,,,,,,,,,,,,,,,,
,,,,,,,,,,aes050,03-03-2023_19h45.32.452,spanish_exp2,2022.1.4,Win32,59.21013678,,,space,4.1741,0,3,3,4,1,target,ultimate,"""Desarrollen esta ecuación"" —los examinó seriamente.",examinar,2,,,,,,,,,,,,,,,,,,,,,,,
,,,,,,,,,,aes050,03-03-2023_19h45.32.452,spanish_exp2,2022.1.4,Win32,59.21013678,,,space,3.9336,0,4,4,8,1,target,ultimate,"""Este es más fuerte"" —discriminó tímida.",discriminar,2,,,,,,,,,,,,,,,,,,,,,,,
,,,,,,,,,,aes050,03-03-2023_19h45.32.452,spanish_exp2,2022.1.4,Win32,59.21013678,,,space,4.2369,0,5,5,1,1,target,penultimate,"""La masa del átomo es medible"" —determino complacida.",determinar,2,,,,,,,,,,,,,,,,,,,,,,,
,,,,,,,,,,aes050,03-03-2023_19h45.32.452,spanish_exp2,2022.1.4,Win32,59.21013678,,,space,4.1617,0,6,6,5,1,target,penultimate,"""Estas son las luces nuevas"" —ilumino contenta.",iluminar,2,,,,,,,,,,,,,,,,,,,,,,,
,,,,,,,,,,aes050,03-03-2023_19h45.32.452,spanish_exp2,2022.1.4,Win32,59.21013678,,,space,3.8427,0,7,7,10,1,target,ultimate,"""Tarjeta roja"" —los eliminó segura.",eliminar,2,,,,,,,,,,,,,,,,,,,,,,,
,,,,,,,,,,aes050,03-03-2023_19h45.32.452,spanish_exp2,2022.1.4,Win32,59.21013678,,,space,4.5655,0,8,8,9,1,target,penultimate,"""No puedo estudiar matemáticas"" —me desanimo compungida.",desanimar,2,,,,,,,,,,,,,,,,,,,,,,,
,,,,,,,,,,aes050,03-03-2023_19h45.32.452,spanish_exp2,2022.1.4,Win32,59.21013678,,,space,4.8388,0,9,9,2,1,target,ultimate,"""Este es el camino más corto"" —la descaminó complacido.",descaminar,2,,,,,,,,,,,,,,,,,,,,,,,
,,,,,,,,,,aes050,03-03-2023_19h45.32.452,spanish_exp2,2022.1.4,Win32,59.21013678,,,space,4.077,0,10,10,13,1,target,penultimate,"""Se llamará beta"" —lo denomino complacido.",denominar,2,,,,,,,,,,,,,,,,,,,,,,,
,,,,,,,,,,aes050,03-03-2023_19h45.32.452,spanish_exp2,2022.1.4,Win32,59.21013678,,,space,4.7236,0,11,11,12,1,target,ultimate,"""Este insecticida es muy eficaz"" —exterminó complacida.",exterminar,2,,,,,,,,,,,,,,,,,,,,,,,
,,,,,,,,,,aes050,03-03-2023_19h45.32.452,spanish_exp2,2022.1.4,Win32,59.21013678,,,space,6.3622,0,12,12,3,1,target,penultimate,"""La directora Pérez renuncia a su cargo"" —disemino compungido.",diseminar,2,,,,,,,,,,,,,,,,,,,,,,,
,,,,,,,,,,aes050,03-03-2023_19h45.32.452,spanish_exp2,2022.1.4,Win32,59.21013678,,,space,4.1019,0,13,13,11,1,target,penultimate,"""Los Osvald, culpables"" —les incrimino seguro.",incriminar,2,,,,,,,,,,,,,,,,,,,,,,,
,,,,,,,,,,aes050,03-03-2023_19h45.32.452,spanish_exp2,2022.1.4,Win32,59.21013678,,,,,,,,,,,,,,,0,0,0,1,1,main_trial_block2.xlsx,,,,,,,,,,,,,,,,,
,,,,,,,,,,aes050,03-03-2023_19h45.32.452,spanish_exp2,2022.1.4,Win32,59.21013678,,,space,3.678,0,0,0,7,1,target,ultimate,"""Me robaron"" —les recriminó con intensidad.",recriminar,1,,,,,,,,,,,,,,,,,,,,,,,
,,,,,,,,,,aes050,03-03-2023_19h45.32.452,spanish_exp2,2022.1.4,Win32,59.21013678,,,space,4.4705,0,1,1,6,1,target,penultimate,"""Confirma la cita para mañana"" —le encamino con ilusión. ",encaminar,1,,,,,,,,,,,,,,,,,,,,,,,
,,,,,,,,,,aes050,03-03-2023_19h45.32.452,spanish_exp2,2022.1.4,Win32,59.21013678,,,space,3.9464,0,2,2,4,1,target,penultimate,"""Escriban la respuesta"" —los examino seriamente.",examinar,1,,,,,,,,,,,,,,,,,,,,,,,
,,,,,,,,,,aes050,03-03-2023_19h45.32.452,spanish_exp2,2022.1.4,Win32,59.21013678,,,space,4.9444,0,3,3,9,1,target,ultimate,"""No puedo cocinar sin quemar la comida"" —me desanimó compungida.",desanimar,1,,,,,,,,,,,,,,,,,,,,,,,
,,,,,,,,,,aes050,03-03-2023_19h45.32.452,spanish_exp2,2022.1.4,Win32,59.21013678,,,space,4.4965,0,4,4,2,1,target,penultimate,"""Este no es mi número de teléfono"" —la descamino complacido.",descaminar,1,,,,,,,,,,,,,,,,,,,,,,,
,,,,,,,,,,aes050,03-03-2023_19h45.32.452,spanish_exp2,2022.1.4,Win32,59.21013678,,,space,4.3099,0,5,5,11,1,target,ultimate,"""Entraron sin pedir permiso"" —les incriminó seguro.",incriminar,1,,,,,,,,,,,,,,,,,,,,,,,
,,,,,,,,,,aes050,03-03-2023_19h45.32.452,spanish_exp2,2022.1.4,Win32,59.21013678,,,space,4.9451,0,6,6,3,1,target,ultimate,"""El presidente del estado se encuentra enfermo"" —diseminó compungido.",diseminar,1,,,,,,,,,,,,,,,,,,,,,,,
,,,,,,,,,,aes050,03-03-2023_19h45.32.452,spanish_exp2,2022.1.4,Win32,59.21013678,,,space,4.2004,0,7,7,5,1,target,ultimate,"""Compré esta lámpara ayer"" —iluminó contenta.",iluminar,1,,,,,,,,,,,,,,,,,,,,,,,
,,,,,,,,,,aes050,03-03-2023_19h45.32.452,spanish_exp2,2022.1.4,Win32,59.21013678,,,space,3.9036,0,8,8,10,1,target,penultimate,"""No son necesarios"" —los elimino segura.",eliminar,1,,,,,,,,,,,,,,,,,,,,,,,
,,,,,,,,,,aes050,03-03-2023_19h45.32.452,spanish_exp2,2022.1.4,Win32,59.21013678,,,space,4.6272,0,9,9,1,1,target,ultimate,"""Con la lluvia el viento es muy fuerte"" —determinó complacida.",determinar,1,,,,,,,,,,,,,,,,,,,,,,,
,,,,,,,,,,aes050,03-03-2023_19h45.32.452,spanish_exp2,2022.1.4,Win32,59.21013678,,,space,4.0019,0,10,10,8,1,target,penultimate,"""Este tiene menos azúcar"" —discrimino tímida.",discriminar,1,,,,,,,,,,,,,,,,,,,,,,,
,,,,,,,,,,aes050,03-03-2023_19h45.32.452,spanish_exp2,2022.1.4,Win32,59.21013678,,,space,4.1472,0,11,11,0,1,target,penultimate,"""No me gusta el té de manzanilla"" —abomino con certeza.",abominar,1,,,,,,,,,,,,,,,,,,,,,,,
,,,,,,,,,,aes050,03-03-2023_19h45.32.452,spanish_exp2,2022.1.4,Win32,59.21013678,,,space,4.1069,0,12,12,12,1,target,penultimate,"""No habrá más cucarachas"" —extermino complacida.",exterminar,1,,,,,,,,,,,,,,,,,,,,,,,
,,,,,,,,,,aes050,03-03-2023_19h45.32.452,spanish_exp2,2022.1.4,Win32,59.21013678,,,space,4.3991,0,13,13,13,1,target,ultimate,"""Retrato de un hombre triste"" —lo denominó complacido. ",denominar,1,,,,,,,,,,,,,,,,,,,,,,,
,,,,,,,,,,aes050,03-03-2023_19h45.32.452,spanish_exp2,2022.1.4,Win32,59.21013678,,,,,,,,,,,,,,,0,1,1,0,1,main_trial_block1.xlsx,,,,,,,,,,,,,,,,,
,,,,,,,,,,aes050,03-03-2023_19h45.32.452,spanish_exp2,2022.1.4,Win32,59.21013678,,,,,,,,,,,,,,,,,,,,,space,5.7083,1,0,1,0,1,,,,,,,,,,
,,,,,,,,,,aes050,03-03-2023_19h45.32.452,spanish_exp2,2022.1.4,Win32,59.21013678,,,space,4.0971,,,,,,target,penultimate,"""Los Osvald, culpables"" —les incrimino seguro.",incriminar,2,,,,,,,,,,,,,,0,0,0,11,1,,,,,
,,,,,,,,,,aes050,03-03-2023_19h45.32.452,spanish_exp2,2022.1.4,Win32,59.21013678,,,space,3.8706,,,,,,target,penultimate,"""Se llamará beta"" —lo denomino complacido.",denominar,2,,,,,,,,,,,,,,0,1,1,13,1,,,,,
,,,,,,,,,,aes050,03-03-2023_19h45.32.452,spanish_exp2,2022.1.4,Win32,59.21013678,,,space,5.2496,,,,,,target,penultimate,"""La directora Pérez renuncia a su cargo"" —disemino compungido.",diseminar,2,,,,,,,,,,,,,,0,2,2,3,1,,,,,
,,,,,,,,,,aes050,03-03-2023_19h45.32.452,spanish_exp2,2022.1.4,Win32,59.21013678,,,space,4.849,,,,,,target,penultimate,"""La masa del átomo es medible"" —determino complacida.",determinar,2,,,,,,,,,,,,,,0,3,3,1,1,,,,,
,,,,,,,,,,aes050,03-03-2023_19h45.32.452,spanish_exp2,2022.1.4,Win32,59.21013678,,,space,4.3683,,,,,,target,penultimate,"""No puedo estudiar matemáticas"" —me desanimo compungida.",desanimar,2,,,,,,,,,,,,,,0,4,4,9,1,,,,,
,,,,,,,,,,aes050,03-03-2023_19h45.32.452,spanish_exp2,2022.1.4,Win32,59.21013678,,,space,4.3295,,,,,,target,ultimate,"""Lee estos artículos"" —le encaminó con ilusión.",encaminar,2,,,,,,,,,,,,,,0,5,5,6,1,,,,,
,,,,,,,,,,aes050,03-03-2023_19h45.32.452,spanish_exp2,2022.1.4,Win32,59.21013678,,,space,3.9203,,,,,,target,penultimate,"""Estas son las luces nuevas"" —ilumino contenta.",iluminar,2,,,,,,,,,,,,,,0,6,6,5,1,,,,,
,,,,,,,,,,aes050,03-03-2023_19h45.32.452,spanish_exp2,2022.1.4,Win32,59.21013678,,,space,3.9834,,,,,,target,ultimate,"""No me gustan las corridas"" —abominó con certeza.",abominar,2,,,,,,,,,,,,,,0,7,7,0,1,,,,,
,,,,,,,,,,aes050,03-03-2023_19h45.32.452,spanish_exp2,2022.1.4,Win32,59.21013678,,,space,3.9077,,,,,,target,ultimate,"""Tarjeta roja"" —los eliminó segura.",eliminar,2,,,,,,,,,,,,,,0,8,8,10,1,,,,,
,,,,,,,,,,aes050,03-03-2023_19h45.32.452,spanish_exp2,2022.1.4,Win32,59.21013678,,,space,4.3474,,,,,,target,ultimate,"""Desarrollen esta ecuación"" —los examinó seriamente.",examinar,2,,,,,,,,,,,,,,0,9,9,4,1,,,,,
,,,,,,,,,,aes050,03-03-2023_19h45.32.452,spanish_exp2,2022.1.4,Win32,59.21013678,,,space,4.6973,,,,,,target,ultimate,"""Este es el camino más corto"" —la descaminó complacido.",descaminar,2,,,,,,,,,,,,,,0,10,10,2,1,,,,,
,,,,,,,,,,aes050,03-03-2023_19h45.32.452,spanish_exp2,2022.1.4,Win32,59.21013678,,,space,4.5264,,,,,,target,penultimate,"""No me gusta su conducta"" —les recrimino con intensidad.",recriminar,2,,,,,,,,,,,,,,0,11,11,7,1,,,,,
,,,,,,,,,,aes050,03-03-2023_19h45.32.452,spanish_exp2,2022.1.4,Win32,59.21013678,,,space,5.4434,,,,,,target,ultimate,"""Este insecticida es muy eficaz"" —exterminó complacida.",exterminar,2,,,,,,,,,,,,,,0,12,12,12,1,,,,,
,,,,,,,,,,aes050,03-03-2023_19h45.32.452,spanish_exp2,2022.1.4,Win32,59.21013678,,,space,3.8668,,,,,,target,ultimate,"""Este es más fuerte"" —discriminó tímida.",discriminar,2,,,,,,,,,,,,,,0,13,13,8,1,,,,,
,,,,,,,,,,aes050,03-03-2023_19h45.32.452,spanish_exp2,2022.1.4,Win32,59.21013678,,,,,,,,,,,,,,,,,,,,main_trial_block2.xlsx,,,,,,,,,,,,,0,0,0,1,1
,,,,,,,,,,aes050,03-03-2023_19h45.32.452,spanish_exp2,2022.1.4,Win32,59.21013678,,,space,4.1419,,,,,,target,penultimate,"""Este tiene menos azúcar"" —discrimino tímida.",discriminar,1,,,,,,,,,,,,,,0,0,0,8,1,,,,,
,,,,,,,,,,aes050,03-03-2023_19h45.32.452,spanish_exp2,2022.1.4,Win32,59.21013678,,,space,4.6166,,,,,,target,penultimate,"""Este no es mi número de teléfono"" —la descamino complacido.",descaminar,1,,,,,,,,,,,,,,0,1,1,2,1,,,,,
,,,,,,,,,,aes050,03-03-2023_19h45.32.452,spanish_exp2,2022.1.4,Win32,59.21013678,,,space,3.7544,,,,,,target,penultimate,"""No son necesarios"" —los elimino segura.",eliminar,1,,,,,,,,,,,,,,0,2,2,10,1,,,,,
,,,,,,,,,,aes050,03-03-2023_19h45.32.452,spanish_exp2,2022.1.4,Win32,59.21013678,,,space,4.5513,,,,,,target,ultimate,"""Retrato de un hombre triste"" —lo denominó complacido. ",denominar,1,,,,,,,,,,,,,,0,3,3,13,1,,,,,
,,,,,,,,,,aes050,03-03-2023_19h45.32.452,spanish_exp2,2022.1.4,Win32,59.21013678,,,space,4.0921,,,,,,target,penultimate,"""Escriban la respuesta"" —los examino seriamente.",examinar,1,,,,,,,,,,,,,,0,4,4,4,1,,,,,
,,,,,,,,,,aes050,03-03-2023_19h45.32.452,spanish_exp2,2022.1.4,Win32,59.21013678,,,space,4.5207,,,,,,target,penultimate,"""No me gusta el té de manzanilla"" —abomino con certeza.",abominar,1,,,,,,,,,,,,,,0,5,5,0,1,,,,,
,,,,,,,,,,aes050,03-03-2023_19h45.32.452,spanish_exp2,2022.1.4,Win32,59.21013678,,,space,4.1246,,,,,,target,ultimate,"""Compré esta lámpara ayer"" —iluminó contenta.",iluminar,1,,,,,,,,,,,,,,0,6,6,5,1,,,,,
,,,,,,,,,,aes050,03-03-2023_19h45.32.452,spanish_exp2,2022.1.4,Win32,59.21013678,,,space,3.8073,,,,,,target,ultimate,"""Me robaron"" —les recriminó con intensidad.",recriminar,1,,,,,,,,,,,,,,0,7,7,7,1,,,,,
,,,,,,,,,,aes050,03-03-2023_19h45.32.452,spanish_exp2,2022.1.4,Win32,59.21013678,,,space,4.7049,,,,,,target,ultimate,"""No puedo cocinar sin quemar la comida"" —me desanimó compungida.",desanimar,1,,,,,,,,,,,,,,0,8,8,9,1,,,,,
,,,,,,,,,,aes050,03-03-2023_19h45.32.452,spanish_exp2,2022.1.4,Win32,59.21013678,,,space,4.1303,,,,,,target,penultimate,"""No habrá más cucarachas"" —extermino complacida.",exterminar,1,,,,,,,,,,,,,,0,9,9,12,1,,,,,
,,,,,,,,,,aes050,03-03-2023_19h45.32.452,spanish_exp2,2022.1.4,Win32,59.21013678,,,space,4.849,,,,,,target,ultimate,"""Con la lluvia el viento es muy fuerte"" —determinó complacida.",determinar,1,,,,,,,,,,,,,,0,10,10,1,1,,,,,
,,,,,,,,,,aes050,03-03-2023_19h45.32.452,spanish_exp2,2022.1.4,Win32,59.21013678,,,space,4.4084,,,,,,target,ultimate,"""Entraron sin pedir permiso"" —les incriminó seguro.",incriminar,1,,,,,,,,,,,,,,0,11,11,11,1,,,,,
,,,,,,,,,,aes050,03-03-2023_19h45.32.452,spanish_exp2,2022.1.4,Win32,59.21013678,,,space,4.5054,,,,,,target,penultimate,"""Confirma la cita para mañana"" —le encamino con ilusión. ",encaminar,1,,,,,,,,,,,,,,0,12,12,6,1,,,,,
,,,,,,,,,,aes050,03-03-2023_19h45.32.452,spanish_exp2,2022.1.4,Win32,59.21013678,,,space,5.0921,,,,,,target,ultimate,"""El presidente del estado se encuentra enfermo"" —diseminó compungido.",diseminar,1,,,,,,,,,,,,,,0,13,13,3,1,,,,,
,,,,,,,,,,aes050,03-03-2023_19h45.32.452,spanish_exp2,2022.1.4,Win32,59.21013678,,,,,,,,,,,,,,,,,,,,main_trial_block1.xlsx,,,,,,,,,,,,,0,1,1,0,1
