key_resp.keys,key_resp.rt,key_resp_2.keys,key_resp_2.rt,trials_2.thisRepN,trials_2.thisTrialN,trials_2.thisN,trials_2.thisIndex,trials_2.ran,trialcatalan,participant ID,date,expName,psychopyVersion,OS,frameRate,key_resp_3.keys,key_resp_3.rt,key_resp_4.keys,key_resp_4.rt,trial_randomizer.thisRepN,trial_randomizer.thisTrialN,trial_randomizer.thisN,trial_randomizer.thisIndex,trial_randomizer.ran,fillertarget,stress,wordcatalan,verbcatalan,rand_12,block_randomizer.thisRepN,block_randomizer.thisTrialN,block_randomizer.thisN,block_randomizer.thisIndex,block_randomizer.ran,condsFile,key_resp_5.keys,key_resp_5.rt,mainTrialRep.thisRepN,mainTrialRep.thisTrialN,mainTrialRep.thisN,mainTrialRep.thisIndex,mainTrialRep.ran,trial_randomizer2.thisRepN,trial_randomizer2.thisTrialN,trial_randomizer2.thisN,trial_randomizer2.thisIndex,trial_randomizer2.ran,block_randomizer2.thisRepN,block_randomizer2.thisTrialN,block_randomizer2.thisN,block_randomizer2.thisIndex,block_randomizer2.ran
space,51.6699,space,9.6728,0,0,0,2,1,"""Voldria una mica de cafè"" —pensa complaguda.",,2023-02-20_09h35.13.794,catalan_exp2,2022.1.4,Win32,60.62810719,,,,,,,,,,,,,,,,,,,,,,,,,,,,,,,,,,,,,
,,space,4.7411,0,1,1,1,1,"""Depèn de la temporada"" —explica seriòs.",,2023-02-20_09h35.13.794,catalan_exp2,2022.1.4,Win32,60.62810719,,,,,,,,,,,,,,,,,,,,,,,,,,,,,,,,,,,,,
,,space,7.5128,0,2,2,0,1,"""Ha regalat un pastís al seu nebot"" —va pensar confiat.",,2023-02-20_09h35.13.794,catalan_exp2,2022.1.4,Win32,60.62810719,,,,,,,,,,,,,,,,,,,,,,,,,,,,,,,,,,,,,
,,space,4.9553,0,3,3,3,1,"""T'estimo molt"" —va sospirar content.",,2023-02-20_09h35.13.794,catalan_exp2,2022.1.4,Win32,60.62810719,,,,,,,,,,,,,,,,,,,,,,,,,,,,,,,,,,,,,
,,,,,,,,,,,2023-02-20_09h35.13.794,catalan_exp2,2022.1.4,Win32,60.62810719,space,11.1335,space,7.8477,0,0,0,10,1,target,ultimate,"""Érem a casa a l'hora del crim"" —va eliminar segura.",eliminar,2,,,,,,,,,,,,,,,,,,,,,,,
,,,,,,,,,,,2023-02-20_09h35.13.794,catalan_exp2,2022.1.4,Win32,60.62810719,,,space,5.9676,0,1,1,8,1,target,ultimate,"""Aquest és més fort"" —va discriminar tímid.",discriminar,2,,,,,,,,,,,,,,,,,,,,,,,
,,,,,,,,,,,2023-02-20_09h35.13.794,catalan_exp2,2022.1.4,Win32,60.62810719,,,space,9.6571,0,2,2,7,1,target,penultimate,"""No m'agrada que em truquis"" —li recrimina seriosa.",recriminar,2,,,,,,,,,,,,,,,,,,,,,,,
,,,,,,,,,,,2023-02-20_09h35.13.794,catalan_exp2,2022.1.4,Win32,60.62810719,,,space,10.2827,0,3,3,9,1,target,penultimate,"""No passaré mai l'examen"" —es desanima seriós.",desanimar,2,,,,,,,,,,,,,,,,,,,,,,,
,,,,,,,,,,,2023-02-20_09h35.13.794,catalan_exp2,2022.1.4,Win32,60.62810719,,,space,9.8755,0,4,4,6,1,target,ultimate,"""Llegiu aquests articles"" —les va encaminar tímida.",encaminar,2,,,,,,,,,,,,,,,,,,,,,,,
,,,,,,,,,,,2023-02-20_09h35.13.794,catalan_exp2,2022.1.4,Win32,60.62810719,,,space,9.074,0,5,5,13,1,target,penultimate,"""Aquest gen es diu beta"" —denomina concret.",denominar,2,,,,,,,,,,,,,,,,,,,,,,,
,,,,,,,,,,,2023-02-20_09h35.13.794,catalan_exp2,2022.1.4,Win32,60.62810719,,,space,7.4182,0,6,6,5,1,target,penultimate,"""Bon Nadal a tots"" —il·lumina content.",illuminar,2,,,,,,,,,,,,,,,,,,,,,,,
,,,,,,,,,,,2023-02-20_09h35.13.794,catalan_exp2,2022.1.4,Win32,60.62810719,,,space,12.52,0,7,7,12,1,target,ultimate,"""Aquest verí va molt bé"" —va exterminar complaguda.",exterminar,2,,,,,,,,,,,,,,,,,,,,,,,
,,,,,,,,,,,2023-02-20_09h35.13.794,catalan_exp2,2022.1.4,Win32,60.62810719,,,space,7.8938,0,8,8,2,1,target,ultimate,"""Aquest és el camí més curt"" —la va descaminar complagut.",descaminar,2,,,,,,,,,,,,,,,,,,,,,,,
,,,,,,,,,,,2023-02-20_09h35.13.794,catalan_exp2,2022.1.4,Win32,60.62810719,,,space,10.4399,0,9,9,0,1,target,ultimate,"""No m'agraden gens les curses de braus"" —va abominar plena.",abominar,2,,,,,,,,,,,,,,,,,,,,,,,
,,,,,,,,,,,2023-02-20_09h35.13.794,catalan_exp2,2022.1.4,Win32,60.62810719,,,space,10.4368,0,10,10,3,1,target,penultimate,"""La senyora Martí renuncia al seu càrrec"" —dissemina prematura.",disseminar,2,,,,,,,,,,,,,,,,,,,,,,,
,,,,,,,,,,,2023-02-20_09h35.13.794,catalan_exp2,2022.1.4,Win32,60.62810719,,,space,14.3427,0,11,11,4,1,target,ultimate,"""Facin aquesta equació"" —els va examinar clarament.",examinar,2,,,,,,,,,,,,,,,,,,,,,,,
,,,,,,,,,,,2023-02-20_09h35.13.794,catalan_exp2,2022.1.4,Win32,60.62810719,,,space,8.2446,0,12,12,11,1,target,penultimate,"""Vostès són les culpables"" —les incrimina confiat.",incriminar,2,,,,,,,,,,,,,,,,,,,,,,,
,,,,,,,,,,,2023-02-20_09h35.13.794,catalan_exp2,2022.1.4,Win32,60.62810719,,,space,8.9654,0,13,13,1,1,target,penultimate,"""La massa de l'àtom és mesurable"" —determina complaguda.",determinar,2,,,,,,,,,,,,,,,,,,,,,,,
,,,,,,,,,,,2023-02-20_09h35.13.794,catalan_exp2,2022.1.4,Win32,60.62810719,,,,,,,,,,,,,,,0,0,0,1,1,main_trial_block2.xlsx,,,,,,,,,,,,,,,,,
,,,,,,,,,,,2023-02-20_09h35.13.794,catalan_exp2,2022.1.4,Win32,60.62810719,,,space,7.4189,0,0,0,8,1,target,penultimate,"""Aquest té menys sucre"" —discrimina tímid.",discriminar,1,,,,,,,,,,,,,,,,,,,,,,,
,,,,,,,,,,,2023-02-20_09h35.13.794,catalan_exp2,2022.1.4,Win32,60.62810719,,,space,9.3417,0,1,1,2,1,target,penultimate,"""Aquest no és el meu número de telèfon"" —la descamina complagut.",descaminar,1,,,,,,,,,,,,,,,,,,,,,,,
,,,,,,,,,,,2023-02-20_09h35.13.794,catalan_exp2,2022.1.4,Win32,60.62810719,,,space,9.8753,0,2,2,3,1,target,ultimate,"""El president de l'estat està malalt"" —va disseminar prematura.",disseminar,1,,,,,,,,,,,,,,,,,,,,,,,
,,,,,,,,,,,2023-02-20_09h35.13.794,catalan_exp2,2022.1.4,Win32,60.62810719,,,space,7.7824,0,3,3,13,1,target,ultimate,"""Retrat d'un home trist"" —va denominar concret.",denominar,1,,,,,,,,,,,,,,,,,,,,,,,
,,,,,,,,,,,2023-02-20_09h35.13.794,catalan_exp2,2022.1.4,Win32,60.62810719,,,space,10.1733,0,4,4,0,1,target,penultimate,"""No m'agrada el te de camamilla"" —abomina plena.",abominar,1,,,,,,,,,,,,,,,,,,,,,,,
,,,,,,,,,,,2023-02-20_09h35.13.794,catalan_exp2,2022.1.4,Win32,60.62810719,,,space,10.5852,0,5,5,9,1,target,ultimate,"""No puc cuinar sense cremar el menjar"" —es va desanimar seriós.",desanimar,1,,,,,,,,,,,,,,,,,,,,,,,
,,,,,,,,,,,2023-02-20_09h35.13.794,catalan_exp2,2022.1.4,Win32,60.62810719,,,space,9.1359,0,6,6,1,1,target,ultimate,"""Amb la pluja el vent és molt fort"" —va determinar complaguda.",determinar,1,,,,,,,,,,,,,,,,,,,,,,,
,,,,,,,,,,,2023-02-20_09h35.13.794,catalan_exp2,2022.1.4,Win32,60.62810719,,,space,10.3619,0,7,7,6,1,target,penultimate,"""Confirmin la cita per demà"" —les encamina tímida.",encaminar,1,,,,,,,,,,,,,,,,,,,,,,,
,,,,,,,,,,,2023-02-20_09h35.13.794,catalan_exp2,2022.1.4,Win32,60.62810719,,,space,8.7254,0,8,8,7,1,target,ultimate,"""És culpa teva"" —li va recriminar seriosa.",recriminar,1,,,,,,,,,,,,,,,,,,,,,,,
,,,,,,,,,,,2023-02-20_09h35.13.794,catalan_exp2,2022.1.4,Win32,60.62810719,,,space,6.0491,0,9,9,10,1,target,penultimate,"""No són necessaris"" —elimina segura.",eliminar,1,,,,,,,,,,,,,,,,,,,,,,,
,,,,,,,,,,,2023-02-20_09h35.13.794,catalan_exp2,2022.1.4,Win32,60.62810719,,,space,7.0016,0,10,10,4,1,target,penultimate,"""Escriguin la resposta"" —els examina clarament.",examinar,1,,,,,,,,,,,,,,,,,,,,,,,
,,,,,,,,,,,2023-02-20_09h35.13.794,catalan_exp2,2022.1.4,Win32,60.62810719,,,space,10.3419,0,11,11,11,1,target,ultimate,"""Van entrar sense demanar permís"" —les va incriminar confiat.",incriminar,1,,,,,,,,,,,,,,,,,,,,,,,
,,,,,,,,,,,2023-02-20_09h35.13.794,catalan_exp2,2022.1.4,Win32,60.62810719,,,space,8.9573,0,12,12,12,1,target,penultimate,"""No hi haurà més bestioles"" —extermina complaguda.",exterminar,1,,,,,,,,,,,,,,,,,,,,,,,
,,,,,,,,,,,2023-02-20_09h35.13.794,catalan_exp2,2022.1.4,Win32,60.62810719,,,space,6.2533,0,13,13,5,1,target,ultimate,"""Acabo de comprar aquest llum"" —va il·luminar content.",illuminar,1,,,,,,,,,,,,,,,,,,,,,,,
,,,,,,,,,,,2023-02-20_09h35.13.794,catalan_exp2,2022.1.4,Win32,60.62810719,,,,,,,,,,,,,,,0,1,1,0,1,main_trial_block1.xlsx,,,,,,,,,,,,,,,,,
,,,,,,,,,,,2023-02-20_09h35.13.794,catalan_exp2,2022.1.4,Win32,60.62810719,,,,,,,,,,,,,,,,,,,,,space,25.2993,0,0,0,0,1,,,,,,,,,,
,,,,,,,,,,,2023-02-20_09h35.13.794,catalan_exp2,2022.1.4,Win32,60.62810719,,,space,8.5635,0,0,0,11,1,target,penultimate,"""Vostès són les culpables"" —les incrimina confiat.",incriminar,2,,,,,,,,,,,,,,,,,,,,,,,
,,,,,,,,,,,2023-02-20_09h35.13.794,catalan_exp2,2022.1.4,Win32,60.62810719,,,space,7.3763,0,1,1,4,1,target,ultimate,"""Facin aquesta equació"" —els va examinar clarament.",examinar,2,,,,,,,,,,,,,,,,,,,,,,,
,,,,,,,,,,,2023-02-20_09h35.13.794,catalan_exp2,2022.1.4,Win32,60.62810719,,,space,6.1918,0,2,2,13,1,target,penultimate,"""Aquest gen es diu beta"" —denomina concret.",denominar,2,,,,,,,,,,,,,,,,,,,,,,,
,,,,,,,,,,,2023-02-20_09h35.13.794,catalan_exp2,2022.1.4,Win32,60.62810719,,,space,7.0866,0,3,3,6,1,target,ultimate,"""Llegiu aquests articles"" —les va encaminar tímida.",encaminar,2,,,,,,,,,,,,,,,,,,,,,,,
,,,,,,,,,,,2023-02-20_09h35.13.794,catalan_exp2,2022.1.4,Win32,60.62810719,,,space,6.5,0,4,4,9,1,target,penultimate,"""No passaré mai l'examen"" —es desanima seriós.",desanimar,2,,,,,,,,,,,,,,,,,,,,,,,
,,,,,,,,,,,2023-02-20_09h35.13.794,catalan_exp2,2022.1.4,Win32,60.62810719,,,space,10.8491,0,5,5,0,1,target,ultimate,"""No m'agraden gens les curses de braus"" —va abominar plena.",abominar,2,,,,,,,,,,,,,,,,,,,,,,,
,,,,,,,,,,,2023-02-20_09h35.13.794,catalan_exp2,2022.1.4,Win32,60.62810719,,,space,5.9585,0,6,6,8,1,target,ultimate,"""Aquest és més fort"" —va discriminar tímid.",discriminar,2,,,,,,,,,,,,,,,,,,,,,,,
,,,,,,,,,,,2023-02-20_09h35.13.794,catalan_exp2,2022.1.4,Win32,60.62810719,,,space,6.7452,0,7,7,10,1,target,ultimate,"""Érem a casa a l'hora del crim"" —va eliminar segura.",eliminar,2,,,,,,,,,,,,,,,,,,,,,,,
,,,,,,,,,,,2023-02-20_09h35.13.794,catalan_exp2,2022.1.4,Win32,60.62810719,,,space,5.2476,0,8,8,5,1,target,penultimate,"""Bon Nadal a tots"" —il·lumina content.",illuminar,2,,,,,,,,,,,,,,,,,,,,,,,
,,,,,,,,,,,2023-02-20_09h35.13.794,catalan_exp2,2022.1.4,Win32,60.62810719,,,space,6.8161,0,9,9,7,1,target,penultimate,"""No m'agrada que em truquis"" —li recrimina seriosa.",recriminar,2,,,,,,,,,,,,,,,,,,,,,,,
,,,,,,,,,,,2023-02-20_09h35.13.794,catalan_exp2,2022.1.4,Win32,60.62810719,,,space,6.9462,0,10,10,2,1,target,ultimate,"""Aquest és el camí més curt"" —la va descaminar complagut.",descaminar,2,,,,,,,,,,,,,,,,,,,,,,,
,,,,,,,,,,,2023-02-20_09h35.13.794,catalan_exp2,2022.1.4,Win32,60.62810719,,,space,9.6655,0,11,11,1,1,target,penultimate,"""La massa de l'àtom és mesurable"" —determina complaguda.",determinar,2,,,,,,,,,,,,,,,,,,,,,,,
,,,,,,,,,,,2023-02-20_09h35.13.794,catalan_exp2,2022.1.4,Win32,60.62810719,,,space,7.4934,0,12,12,12,1,target,ultimate,"""Aquest verí va molt bé"" —va exterminar complaguda.",exterminar,2,,,,,,,,,,,,,,,,,,,,,,,
,,,,,,,,,,,2023-02-20_09h35.13.794,catalan_exp2,2022.1.4,Win32,60.62810719,,,space,10.8581,0,13,13,3,1,target,penultimate,"""La senyora Martí renuncia al seu càrrec"" —dissemina prematura.",disseminar,2,,,,,,,,,,,,,,,,,,,,,,,
,,,,,,,,,,,2023-02-20_09h35.13.794,catalan_exp2,2022.1.4,Win32,60.62810719,,,,,,,,,,,,,,,0,0,0,1,1,main_trial_block2.xlsx,,,,,,,,,,,,,,,,,
,,,,,,,,,,,2023-02-20_09h35.13.794,catalan_exp2,2022.1.4,Win32,60.62810719,,,space,5.7927,0,0,0,4,1,target,penultimate,"""Escriguin la resposta"" —els examina clarament.",examinar,1,,,,,,,,,,,,,,,,,,,,,,,
,,,,,,,,,,,2023-02-20_09h35.13.794,catalan_exp2,2022.1.4,Win32,60.62810719,,,space,8.4385,0,1,1,0,1,target,penultimate,"""No m'agrada el te de camamilla"" —abomina plena.",abominar,1,,,,,,,,,,,,,,,,,,,,,,,
,,,,,,,,,,,2023-02-20_09h35.13.794,catalan_exp2,2022.1.4,Win32,60.62810719,,,space,7.939,0,2,2,8,1,target,penultimate,"""Aquest té menys sucre"" —discrimina tímid.",discriminar,1,,,,,,,,,,,,,,,,,,,,,,,
,,,,,,,,,,,2023-02-20_09h35.13.794,catalan_exp2,2022.1.4,Win32,60.62810719,,,space,6.2423,0,3,3,3,1,target,ultimate,"""El president de l'estat està malalt"" —va disseminar prematura.",disseminar,1,,,,,,,,,,,,,,,,,,,,,,,
,,,,,,,,,,,2023-02-20_09h35.13.794,catalan_exp2,2022.1.4,Win32,60.62810719,,,space,6.1956,0,4,4,7,1,target,ultimate,"""És culpa teva"" —li va recriminar seriosa.",recriminar,1,,,,,,,,,,,,,,,,,,,,,,,
,,,,,,,,,,,2023-02-20_09h35.13.794,catalan_exp2,2022.1.4,Win32,60.62810719,,,space,10.803,0,5,5,11,1,target,ultimate,"""Van entrar sense demanar permís"" —les va incriminar confiat.",incriminar,1,,,,,,,,,,,,,,,,,,,,,,,
,,,,,,,,,,,2023-02-20_09h35.13.794,catalan_exp2,2022.1.4,Win32,60.62810719,,,space,20.3979,0,6,6,9,1,target,ultimate,"""No puc cuinar sense cremar el menjar"" —es va desanimar seriós.",desanimar,1,,,,,,,,,,,,,,,,,,,,,,,
,,,,,,,,,,,2023-02-20_09h35.13.794,catalan_exp2,2022.1.4,Win32,60.62810719,,,space,11.8714,0,7,7,1,1,target,ultimate,"""Amb la pluja el vent és molt fort"" —va determinar complaguda.",determinar,1,,,,,,,,,,,,,,,,,,,,,,,
,,,,,,,,,,,2023-02-20_09h35.13.794,catalan_exp2,2022.1.4,Win32,60.62810719,,,space,10.5103,0,8,8,13,1,target,ultimate,"""Retrat d'un home trist"" —va denominar concret.",denominar,1,,,,,,,,,,,,,,,,,,,,,,,
,,,,,,,,,,,2023-02-20_09h35.13.794,catalan_exp2,2022.1.4,Win32,60.62810719,,,space,7.5056,0,9,9,5,1,target,ultimate,"""Acabo de comprar aquest llum"" —va il·luminar content.",illuminar,1,,,,,,,,,,,,,,,,,,,,,,,
,,,,,,,,,,,2023-02-20_09h35.13.794,catalan_exp2,2022.1.4,Win32,60.62810719,,,space,6.5998,0,10,10,6,1,target,penultimate,"""Confirmin la cita per demà"" —les encamina tímida.",encaminar,1,,,,,,,,,,,,,,,,,,,,,,,
,,,,,,,,,,,2023-02-20_09h35.13.794,catalan_exp2,2022.1.4,Win32,60.62810719,,,space,11.0773,0,11,11,2,1,target,penultimate,"""Aquest no és el meu número de telèfon"" —la descamina complagut.",descaminar,1,,,,,,,,,,,,,,,,,,,,,,,
,,,,,,,,,,,2023-02-20_09h35.13.794,catalan_exp2,2022.1.4,Win32,60.62810719,,,space,7.2975,0,12,12,12,1,target,penultimate,"""No hi haurà més bestioles"" —extermina complaguda.",exterminar,1,,,,,,,,,,,,,,,,,,,,,,,
,,,,,,,,,,,2023-02-20_09h35.13.794,catalan_exp2,2022.1.4,Win32,60.62810719,,,space,4.6293,0,13,13,10,1,target,penultimate,"""No són necessaris"" —elimina segura.",eliminar,1,,,,,,,,,,,,,,,,,,,,,,,
,,,,,,,,,,,2023-02-20_09h35.13.794,catalan_exp2,2022.1.4,Win32,60.62810719,,,,,,,,,,,,,,,0,1,1,0,1,main_trial_block1.xlsx,,,,,,,,,,,,,,,,,
,,,,,,,,,,,2023-02-20_09h35.13.794,catalan_exp2,2022.1.4,Win32,60.62810719,,,,,,,,,,,,,,,,,,,,,space,31.9612,1,0,1,0,1,,,,,,,,,,
,,,,,,,,,,,2023-02-20_09h35.13.794,catalan_exp2,2022.1.4,Win32,60.62810719,,,space,8.6184,,,,,,target,penultimate,"""No passaré mai l'examen"" —es desanima seriós.",desanimar,2,,,,,,,,,,,,,,0,0,0,9,1,,,,,
,,,,,,,,,,,2023-02-20_09h35.13.794,catalan_exp2,2022.1.4,Win32,60.62810719,,,space,11.6498,,,,,,target,ultimate,"""Facin aquesta equació"" —els va examinar clarament.",examinar,2,,,,,,,,,,,,,,0,1,1,4,1,,,,,
,,,,,,,,,,,2023-02-20_09h35.13.794,catalan_exp2,2022.1.4,Win32,60.62810719,,,space,4.9123,,,,,,target,penultimate,"""Bon Nadal a tots"" —il·lumina content.",illuminar,2,,,,,,,,,,,,,,0,2,2,5,1,,,,,
,,,,,,,,,,,2023-02-20_09h35.13.794,catalan_exp2,2022.1.4,Win32,60.62810719,,,space,6.3773,,,,,,target,ultimate,"""Érem a casa a l'hora del crim"" —va eliminar segura.",eliminar,2,,,,,,,,,,,,,,0,3,3,10,1,,,,,
,,,,,,,,,,,2023-02-20_09h35.13.794,catalan_exp2,2022.1.4,Win32,60.62810719,,,space,7.2258,,,,,,target,penultimate,"""La massa de l'àtom és mesurable"" —determina complaguda.",determinar,2,,,,,,,,,,,,,,0,4,4,1,1,,,,,
,,,,,,,,,,,2023-02-20_09h35.13.794,catalan_exp2,2022.1.4,Win32,60.62810719,,,space,7.4186,,,,,,target,penultimate,"""Vostès són les culpables"" —les incrimina confiat.",incriminar,2,,,,,,,,,,,,,,0,5,5,11,1,,,,,
,,,,,,,,,,,2023-02-20_09h35.13.794,catalan_exp2,2022.1.4,Win32,60.62810719,,,space,6.6664,,,,,,target,penultimate,"""Aquest gen es diu beta"" —denomina concret.",denominar,2,,,,,,,,,,,,,,0,6,6,13,1,,,,,
,,,,,,,,,,,2023-02-20_09h35.13.794,catalan_exp2,2022.1.4,Win32,60.62810719,,,space,6.1711,,,,,,target,penultimate,"""No m'agrada que em truquis"" —li recrimina seriosa.",recriminar,2,,,,,,,,,,,,,,0,7,7,7,1,,,,,
,,,,,,,,,,,2023-02-20_09h35.13.794,catalan_exp2,2022.1.4,Win32,60.62810719,,,space,7.0897,,,,,,target,ultimate,"""Aquest és el camí més curt"" —la va descaminar complagut.",descaminar,2,,,,,,,,,,,,,,0,8,8,2,1,,,,,
,,,,,,,,,,,2023-02-20_09h35.13.794,catalan_exp2,2022.1.4,Win32,60.62810719,,,space,9.7245,,,,,,target,ultimate,"""Aquest verí va molt bé"" —va exterminar complaguda.",exterminar,2,,,,,,,,,,,,,,0,9,9,12,1,,,,,
,,,,,,,,,,,2023-02-20_09h35.13.794,catalan_exp2,2022.1.4,Win32,60.62810719,,,space,11.4245,,,,,,target,ultimate,"""Llegiu aquests articles"" —les va encaminar tímida.",encaminar,2,,,,,,,,,,,,,,0,10,10,6,1,,,,,
,,,,,,,,,,,2023-02-20_09h35.13.794,catalan_exp2,2022.1.4,Win32,60.62810719,,,space,5.7396,,,,,,target,ultimate,"""Aquest és més fort"" —va discriminar tímid.",discriminar,2,,,,,,,,,,,,,,0,11,11,8,1,,,,,
,,,,,,,,,,,2023-02-20_09h35.13.794,catalan_exp2,2022.1.4,Win32,60.62810719,,,space,12.582,,,,,,target,ultimate,"""No m'agraden gens les curses de braus"" —va abominar plena.",abominar,2,,,,,,,,,,,,,,0,12,12,0,1,,,,,
,,,,,,,,,,,2023-02-20_09h35.13.794,catalan_exp2,2022.1.4,Win32,60.62810719,,,space,9.3072,,,,,,target,penultimate,"""La senyora Martí renuncia al seu càrrec"" —dissemina prematura.",disseminar,2,,,,,,,,,,,,,,0,13,13,3,1,,,,,
,,,,,,,,,,,2023-02-20_09h35.13.794,catalan_exp2,2022.1.4,Win32,60.62810719,,,,,,,,,,,,,,,,,,,,main_trial_block2.xlsx,,,,,,,,,,,,,0,0,0,1,1
,,,,,,,,,,,2023-02-20_09h35.13.794,catalan_exp2,2022.1.4,Win32,60.62810719,,,space,5.4362,,,,,,target,ultimate,"""Acabo de comprar aquest llum"" —va il·luminar content.",illuminar,1,,,,,,,,,,,,,,0,0,0,5,1,,,,,
,,,,,,,,,,,2023-02-20_09h35.13.794,catalan_exp2,2022.1.4,Win32,60.62810719,,,space,10.0455,,,,,,target,ultimate,"""Amb la pluja el vent és molt fort"" —va determinar complaguda.",determinar,1,,,,,,,,,,,,,,0,1,1,1,1,,,,,
,,,,,,,,,,,2023-02-20_09h35.13.794,catalan_exp2,2022.1.4,Win32,60.62810719,,,space,9.4128,,,,,,target,penultimate,"""Aquest té menys sucre"" —discrimina tímid.",discriminar,1,,,,,,,,,,,,,,0,2,2,8,1,,,,,
,,,,,,,,,,,2023-02-20_09h35.13.794,catalan_exp2,2022.1.4,Win32,60.62810719,,,space,7.5864,,,,,,target,penultimate,"""Escriguin la resposta"" —els examina clarament.",examinar,1,,,,,,,,,,,,,,0,3,3,4,1,,,,,
,,,,,,,,,,,2023-02-20_09h35.13.794,catalan_exp2,2022.1.4,Win32,60.62810719,,,space,7.8651,,,,,,target,ultimate,"""Van entrar sense demanar permís"" —les va incriminar confiat.",incriminar,1,,,,,,,,,,,,,,0,4,4,11,1,,,,,
,,,,,,,,,,,2023-02-20_09h35.13.794,catalan_exp2,2022.1.4,Win32,60.62810719,,,space,5.3363,,,,,,target,ultimate,"""És culpa teva"" —li va recriminar seriosa.",recriminar,1,,,,,,,,,,,,,,0,5,5,7,1,,,,,
,,,,,,,,,,,2023-02-20_09h35.13.794,catalan_exp2,2022.1.4,Win32,60.62810719,,,space,6.9512,,,,,,target,ultimate,"""El president de l'estat està malalt"" —va disseminar prematura.",disseminar,1,,,,,,,,,,,,,,0,6,6,3,1,,,,,
,,,,,,,,,,,2023-02-20_09h35.13.794,catalan_exp2,2022.1.4,Win32,60.62810719,,,space,7.0901,,,,,,target,penultimate,"""No són necessaris"" —elimina segura.",eliminar,1,,,,,,,,,,,,,,0,7,7,10,1,,,,,
,,,,,,,,,,,2023-02-20_09h35.13.794,catalan_exp2,2022.1.4,Win32,60.62810719,,,space,7.4053,,,,,,target,penultimate,"""Confirmin la cita per demà"" —les encamina tímida.",encaminar,1,,,,,,,,,,,,,,0,8,8,6,1,,,,,
,,,,,,,,,,,2023-02-20_09h35.13.794,catalan_exp2,2022.1.4,Win32,60.62810719,,,space,7.3732,,,,,,target,penultimate,"""Aquest no és el meu número de telèfon"" —la descamina complagut.",descaminar,1,,,,,,,,,,,,,,0,9,9,2,1,,,,,
,,,,,,,,,,,2023-02-20_09h35.13.794,catalan_exp2,2022.1.4,Win32,60.62810719,,,space,10.5928,,,,,,target,ultimate,"""No puc cuinar sense cremar el menjar"" —es va desanimar seriós.",desanimar,1,,,,,,,,,,,,,,0,10,10,9,1,,,,,
,,,,,,,,,,,2023-02-20_09h35.13.794,catalan_exp2,2022.1.4,Win32,60.62810719,,,space,7.7823,,,,,,target,ultimate,"""Retrat d'un home trist"" —va denominar concret.",denominar,1,,,,,,,,,,,,,,0,11,11,13,1,,,,,
,,,,,,,,,,,2023-02-20_09h35.13.794,catalan_exp2,2022.1.4,Win32,60.62810719,,,space,6.7734,,,,,,target,penultimate,"""No hi haurà més bestioles"" —extermina complaguda.",exterminar,1,,,,,,,,,,,,,,0,12,12,12,1,,,,,
,,,,,,,,,,,2023-02-20_09h35.13.794,catalan_exp2,2022.1.4,Win32,60.62810719,,,space,8.5857,,,,,,target,penultimate,"""No m'agrada el te de camamilla"" —abomina plena.",abominar,1,,,,,,,,,,,,,,0,13,13,0,1,,,,,
,,,,,,,,,,,2023-02-20_09h35.13.794,catalan_exp2,2022.1.4,Win32,60.62810719,,,,,,,,,,,,,,,,,,,,main_trial_block1.xlsx,,,,,,,,,,,,,0,1,1,0,1
