key_resp.keys,key_resp.rt,key_resp_2.keys,key_resp_2.rt,trials_2.thisRepN,trials_2.thisTrialN,trials_2.thisN,trials_2.thisIndex,trials_2.ran,trialspanish,participant ID,date,expName,psychopyVersion,OS,frameRate,key_resp_3.keys,key_resp_3.rt,key_resp_4.keys,key_resp_4.rt,trials_randomizer.thisRepN,trials_randomizer.thisTrialN,trials_randomizer.thisN,trials_randomizer.thisIndex,trials_randomizer.ran,fillertarget,stress,wordspanish,verbspanish,rand_12,block_randomizer.thisRepN,block_randomizer.thisTrialN,block_randomizer.thisN,block_randomizer.thisIndex,block_randomizer.ran,condsFile,key_resp_5.keys,key_resp_5.rt,mainTrialReps.thisRepN,mainTrialReps.thisTrialN,mainTrialReps.thisN,mainTrialReps.thisIndex,mainTrialReps.ran,trials_randomizer2.thisRepN,trials_randomizer2.thisTrialN,trials_randomizer2.thisN,trials_randomizer2.thisIndex,trials_randomizer2.ran,block_randomizer2.thisRepN,block_randomizer2.thisTrialN,block_randomizer2.thisN,block_randomizer2.thisIndex,block_randomizer2.ran
space,89.0211,space,9.2377,0,0,0,0,1,"""Le regaló una camiseta a su sobrino"" —digo contento.",afs116,03-10-2023_15h53.52.817,spanish_exp2,2022.1.4,Win32,59.53798523,,,,,,,,,,,,,,,,,,,,,,,,,,,,,,,,,,,,,
,,space,5.9917,0,1,1,1,1,"""Depende del clima"" —respondió claramente.",afs116,03-10-2023_15h53.52.817,spanish_exp2,2022.1.4,Win32,59.53798523,,,,,,,,,,,,,,,,,,,,,,,,,,,,,,,,,,,,,
,,space,7.495,0,2,2,2,1,"""Me gustaría un café"" —pienso complacido.",afs116,03-10-2023_15h53.52.817,spanish_exp2,2022.1.4,Win32,59.53798523,,,,,,,,,,,,,,,,,,,,,,,,,,,,,,,,,,,,,
,,space,6.6077,0,3,3,3,1,"""Te quiero mucho"" —suspiró contenta Teresa.",afs116,03-10-2023_15h53.52.817,spanish_exp2,2022.1.4,Win32,59.53798523,,,,,,,,,,,,,,,,,,,,,,,,,,,,,,,,,,,,,
,,,,,,,,,,afs116,03-10-2023_15h53.52.817,spanish_exp2,2022.1.4,Win32,59.53798523,space,4.3611,space,11.142,0,0,0,5,1,target,penultimate,"""Estas son las luces nuevas"" —ilumino contenta.",iluminar,2,,,,,,,,,,,,,,,,,,,,,,,
,,,,,,,,,,afs116,03-10-2023_15h53.52.817,spanish_exp2,2022.1.4,Win32,59.53798523,,,space,11.8085,0,1,1,0,1,target,ultimate,"""No me gustan las corridas"" —abominó con certeza.",abominar,2,,,,,,,,,,,,,,,,,,,,,,,
,,,,,,,,,,afs116,03-10-2023_15h53.52.817,spanish_exp2,2022.1.4,Win32,59.53798523,,,space,10.3155,0,2,2,9,1,target,penultimate,"""No puedo estudiar matemáticas"" —me desanimo compungida.",desanimar,2,,,,,,,,,,,,,,,,,,,,,,,
,,,,,,,,,,afs116,03-10-2023_15h53.52.817,spanish_exp2,2022.1.4,Win32,59.53798523,,,space,13.2955,0,3,3,11,1,target,penultimate,"""Los Osvald, culpables"" —les incrimino seguro.",incriminar,2,,,,,,,,,,,,,,,,,,,,,,,
,,,,,,,,,,afs116,03-10-2023_15h53.52.817,spanish_exp2,2022.1.4,Win32,59.53798523,,,space,10.077,0,4,4,6,1,target,ultimate,"""Lee estos artículos"" —le encaminó con ilusión.",encaminar,2,,,,,,,,,,,,,,,,,,,,,,,
,,,,,,,,,,afs116,03-10-2023_15h53.52.817,spanish_exp2,2022.1.4,Win32,59.53798523,,,space,11.137,0,5,5,3,1,target,penultimate,"""La directora Pérez renuncia a su cargo"" —disemino compungido.",diseminar,2,,,,,,,,,,,,,,,,,,,,,,,
,,,,,,,,,,afs116,03-10-2023_15h53.52.817,spanish_exp2,2022.1.4,Win32,59.53798523,,,space,10.4522,0,6,6,1,1,target,penultimate,"""La masa del átomo es medible"" —determino complacida.",determinar,2,,,,,,,,,,,,,,,,,,,,,,,
,,,,,,,,,,afs116,03-10-2023_15h53.52.817,spanish_exp2,2022.1.4,Win32,59.53798523,,,space,18.5655,0,7,7,4,1,target,ultimate,"""Desarrollen esta ecuación"" —los examinó seriamente.",examinar,2,,,,,,,,,,,,,,,,,,,,,,,
,,,,,,,,,,afs116,03-10-2023_15h53.52.817,spanish_exp2,2022.1.4,Win32,59.53798523,,,space,11.7217,0,8,8,7,1,target,penultimate,"""No me gusta su conducta"" —les recrimino con intensidad.",recriminar,2,,,,,,,,,,,,,,,,,,,,,,,
,,,,,,,,,,afs116,03-10-2023_15h53.52.817,spanish_exp2,2022.1.4,Win32,59.53798523,,,space,7.952,0,9,9,10,1,target,ultimate,"""Tarjeta roja"" —los eliminó segura.",eliminar,2,,,,,,,,,,,,,,,,,,,,,,,
,,,,,,,,,,afs116,03-10-2023_15h53.52.817,spanish_exp2,2022.1.4,Win32,59.53798523,,,space,10.2179,0,10,10,2,1,target,ultimate,"""Este es el camino más corto"" —la descaminó complacido.",descaminar,2,,,,,,,,,,,,,,,,,,,,,,,
,,,,,,,,,,afs116,03-10-2023_15h53.52.817,spanish_exp2,2022.1.4,Win32,59.53798523,,,space,10.674,0,11,11,12,1,target,ultimate,"""Este insecticida es muy eficaz"" —exterminó complacida.",exterminar,2,,,,,,,,,,,,,,,,,,,,,,,
,,,,,,,,,,afs116,03-10-2023_15h53.52.817,spanish_exp2,2022.1.4,Win32,59.53798523,,,space,6.6278,0,12,12,8,1,target,ultimate,"""Este es más fuerte"" —discriminó tímida.",discriminar,2,,,,,,,,,,,,,,,,,,,,,,,
,,,,,,,,,,afs116,03-10-2023_15h53.52.817,spanish_exp2,2022.1.4,Win32,59.53798523,,,space,11.2352,0,13,13,13,1,target,penultimate,"""Se llamará beta"" —lo denomino complacido.",denominar,2,,,,,,,,,,,,,,,,,,,,,,,
,,,,,,,,,,afs116,03-10-2023_15h53.52.817,spanish_exp2,2022.1.4,Win32,59.53798523,,,,,,,,,,,,,,,0,0,0,1,1,main_trial_block2.xlsx,,,,,,,,,,,,,,,,,
,,,,,,,,,,afs116,03-10-2023_15h53.52.817,spanish_exp2,2022.1.4,Win32,59.53798523,,,space,8.2379,0,0,0,2,1,target,penultimate,"""Este no es mi número de teléfono"" —la descamino complacido.",descaminar,1,,,,,,,,,,,,,,,,,,,,,,,
,,,,,,,,,,afs116,03-10-2023_15h53.52.817,spanish_exp2,2022.1.4,Win32,59.53798523,,,space,9.0166,0,1,1,4,1,target,penultimate,"""Escriban la respuesta"" —los examino seriamente.",examinar,1,,,,,,,,,,,,,,,,,,,,,,,
,,,,,,,,,,afs116,03-10-2023_15h53.52.817,spanish_exp2,2022.1.4,Win32,59.53798523,,,space,13.7039,0,2,2,8,1,target,penultimate,"""Este tiene menos azúcar"" —discrimino tímida.",discriminar,1,,,,,,,,,,,,,,,,,,,,,,,
,,,,,,,,,,afs116,03-10-2023_15h53.52.817,spanish_exp2,2022.1.4,Win32,59.53798523,,,space,13.3679,0,3,3,9,1,target,ultimate,"""No puedo cocinar sin quemar la comida"" —me desanimó compungida.",desanimar,1,,,,,,,,,,,,,,,,,,,,,,,
,,,,,,,,,,afs116,03-10-2023_15h53.52.817,spanish_exp2,2022.1.4,Win32,59.53798523,,,space,7.8143,0,4,4,5,1,target,ultimate,"""Compré esta lámpara ayer"" —iluminó contenta.",iluminar,1,,,,,,,,,,,,,,,,,,,,,,,
,,,,,,,,,,afs116,03-10-2023_15h53.52.817,spanish_exp2,2022.1.4,Win32,59.53798523,,,space,13.6284,0,5,5,1,1,target,ultimate,"""Con la lluvia el viento es muy fuerte"" —determinó complacida.",determinar,1,,,,,,,,,,,,,,,,,,,,,,,
,,,,,,,,,,afs116,03-10-2023_15h53.52.817,spanish_exp2,2022.1.4,Win32,59.53798523,,,space,10.5833,0,6,6,6,1,target,penultimate,"""Confirma la cita para mañana"" —le encamino con ilusión. ",encaminar,1,,,,,,,,,,,,,,,,,,,,,,,
,,,,,,,,,,afs116,03-10-2023_15h53.52.817,spanish_exp2,2022.1.4,Win32,59.53798523,,,space,8.7003,0,7,7,11,1,target,ultimate,"""Entraron sin pedir permiso"" —les incriminó seguro.",incriminar,1,,,,,,,,,,,,,,,,,,,,,,,
,,,,,,,,,,afs116,03-10-2023_15h53.52.817,spanish_exp2,2022.1.4,Win32,59.53798523,,,space,14.0853,0,8,8,7,1,target,ultimate,"""Me robaron"" —les recriminó con intensidad.",recriminar,1,,,,,,,,,,,,,,,,,,,,,,,
,,,,,,,,,,afs116,03-10-2023_15h53.52.817,spanish_exp2,2022.1.4,Win32,59.53798523,,,space,11.9243,0,9,9,12,1,target,penultimate,"""No habrá más cucarachas"" —extermino complacida.",exterminar,1,,,,,,,,,,,,,,,,,,,,,,,
,,,,,,,,,,afs116,03-10-2023_15h53.52.817,spanish_exp2,2022.1.4,Win32,59.53798523,,,space,10.7856,0,10,10,0,1,target,penultimate,"""No me gusta el té de manzanilla"" —abomino con certeza.",abominar,1,,,,,,,,,,,,,,,,,,,,,,,
,,,,,,,,,,afs116,03-10-2023_15h53.52.817,spanish_exp2,2022.1.4,Win32,59.53798523,,,space,9.2669,0,11,11,10,1,target,penultimate,"""No son necesarios"" —los elimino segura.",eliminar,1,,,,,,,,,,,,,,,,,,,,,,,
,,,,,,,,,,afs116,03-10-2023_15h53.52.817,spanish_exp2,2022.1.4,Win32,59.53798523,,,space,16.3663,0,12,12,13,1,target,ultimate,"""Retrato de un hombre triste"" —lo denominó complacido. ",denominar,1,,,,,,,,,,,,,,,,,,,,,,,
,,,,,,,,,,afs116,03-10-2023_15h53.52.817,spanish_exp2,2022.1.4,Win32,59.53798523,,,space,10.0399,0,13,13,3,1,target,ultimate,"""El presidente del estado se encuentra enfermo"" —diseminó compungido.",diseminar,1,,,,,,,,,,,,,,,,,,,,,,,
,,,,,,,,,,afs116,03-10-2023_15h53.52.817,spanish_exp2,2022.1.4,Win32,59.53798523,,,,,,,,,,,,,,,0,1,1,0,1,main_trial_block1.xlsx,,,,,,,,,,,,,,,,,
,,,,,,,,,,afs116,03-10-2023_15h53.52.817,spanish_exp2,2022.1.4,Win32,59.53798523,,,,,,,,,,,,,,,,,,,,,space,21.7185,0,0,0,0,1,,,,,,,,,,
,,,,,,,,,,afs116,03-10-2023_15h53.52.817,spanish_exp2,2022.1.4,Win32,59.53798523,,,space,8.0332,0,0,0,13,1,target,penultimate,"""Se llamará beta"" —lo denomino complacido.",denominar,2,,,,,,,,,,,,,,,,,,,,,,,
,,,,,,,,,,afs116,03-10-2023_15h53.52.817,spanish_exp2,2022.1.4,Win32,59.53798523,,,space,5.2188,0,1,1,8,1,target,ultimate,"""Este es más fuerte"" —discriminó tímida.",discriminar,2,,,,,,,,,,,,,,,,,,,,,,,
,,,,,,,,,,afs116,03-10-2023_15h53.52.817,spanish_exp2,2022.1.4,Win32,59.53798523,,,space,11.9398,0,2,2,7,1,target,penultimate,"""No me gusta su conducta"" —les recrimino con intensidad.",recriminar,2,,,,,,,,,,,,,,,,,,,,,,,
,,,,,,,,,,afs116,03-10-2023_15h53.52.817,spanish_exp2,2022.1.4,Win32,59.53798523,,,space,11.353,0,3,3,4,1,target,ultimate,"""Desarrollen esta ecuación"" —los examinó seriamente.",examinar,2,,,,,,,,,,,,,,,,,,,,,,,
,,,,,,,,,,afs116,03-10-2023_15h53.52.817,spanish_exp2,2022.1.4,Win32,59.53798523,,,space,7.6231,0,4,4,5,1,target,penultimate,"""Estas son las luces nuevas"" —ilumino contenta.",iluminar,2,,,,,,,,,,,,,,,,,,,,,,,
,,,,,,,,,,afs116,03-10-2023_15h53.52.817,spanish_exp2,2022.1.4,Win32,59.53798523,,,space,7.7201,0,5,5,10,1,target,ultimate,"""Tarjeta roja"" —los eliminó segura.",eliminar,2,,,,,,,,,,,,,,,,,,,,,,,
,,,,,,,,,,afs116,03-10-2023_15h53.52.817,spanish_exp2,2022.1.4,Win32,59.53798523,,,space,8.9585,0,6,6,9,1,target,penultimate,"""No puedo estudiar matemáticas"" —me desanimo compungida.",desanimar,2,,,,,,,,,,,,,,,,,,,,,,,
,,,,,,,,,,afs116,03-10-2023_15h53.52.817,spanish_exp2,2022.1.4,Win32,59.53798523,,,space,10.4118,0,7,7,0,1,target,ultimate,"""No me gustan las corridas"" —abominó con certeza.",abominar,2,,,,,,,,,,,,,,,,,,,,,,,
,,,,,,,,,,afs116,03-10-2023_15h53.52.817,spanish_exp2,2022.1.4,Win32,59.53798523,,,space,9.5578,0,8,8,2,1,target,ultimate,"""Este es el camino más corto"" —la descaminó complacido.",descaminar,2,,,,,,,,,,,,,,,,,,,,,,,
,,,,,,,,,,afs116,03-10-2023_15h53.52.817,spanish_exp2,2022.1.4,Win32,59.53798523,,,space,12.0129,0,9,9,3,1,target,penultimate,"""La directora Pérez renuncia a su cargo"" —disemino compungido.",diseminar,2,,,,,,,,,,,,,,,,,,,,,,,
,,,,,,,,,,afs116,03-10-2023_15h53.52.817,spanish_exp2,2022.1.4,Win32,59.53798523,,,space,11.86,0,10,10,12,1,target,ultimate,"""Este insecticida es muy eficaz"" —exterminó complacida.",exterminar,2,,,,,,,,,,,,,,,,,,,,,,,
,,,,,,,,,,afs116,03-10-2023_15h53.52.817,spanish_exp2,2022.1.4,Win32,59.53798523,,,space,7.0281,0,11,11,6,1,target,ultimate,"""Lee estos artículos"" —le encaminó con ilusión.",encaminar,2,,,,,,,,,,,,,,,,,,,,,,,
,,,,,,,,,,afs116,03-10-2023_15h53.52.817,spanish_exp2,2022.1.4,Win32,59.53798523,,,space,9.575,0,12,12,11,1,target,penultimate,"""Los Osvald, culpables"" —les incrimino seguro.",incriminar,2,,,,,,,,,,,,,,,,,,,,,,,
,,,,,,,,,,afs116,03-10-2023_15h53.52.817,spanish_exp2,2022.1.4,Win32,59.53798523,,,space,15.8737,0,13,13,1,1,target,penultimate,"""La masa del átomo es medible"" —determino complacida.",determinar,2,,,,,,,,,,,,,,,,,,,,,,,
,,,,,,,,,,afs116,03-10-2023_15h53.52.817,spanish_exp2,2022.1.4,Win32,59.53798523,,,,,,,,,,,,,,,0,0,0,1,1,main_trial_block2.xlsx,,,,,,,,,,,,,,,,,
,,,,,,,,,,afs116,03-10-2023_15h53.52.817,spanish_exp2,2022.1.4,Win32,59.53798523,,,space,13.6821,0,0,0,7,1,target,ultimate,"""Me robaron"" —les recriminó con intensidad.",recriminar,1,,,,,,,,,,,,,,,,,,,,,,,
,,,,,,,,,,afs116,03-10-2023_15h53.52.817,spanish_exp2,2022.1.4,Win32,59.53798523,,,space,8.1656,0,1,1,10,1,target,penultimate,"""No son necesarios"" —los elimino segura.",eliminar,1,,,,,,,,,,,,,,,,,,,,,,,
,,,,,,,,,,afs116,03-10-2023_15h53.52.817,spanish_exp2,2022.1.4,Win32,59.53798523,,,space,11.1607,0,2,2,13,1,target,ultimate,"""Retrato de un hombre triste"" —lo denominó complacido. ",denominar,1,,,,,,,,,,,,,,,,,,,,,,,
,,,,,,,,,,afs116,03-10-2023_15h53.52.817,spanish_exp2,2022.1.4,Win32,59.53798523,,,space,9.7366,0,3,3,1,1,target,ultimate,"""Con la lluvia el viento es muy fuerte"" —determinó complacida.",determinar,1,,,,,,,,,,,,,,,,,,,,,,,
,,,,,,,,,,afs116,03-10-2023_15h53.52.817,spanish_exp2,2022.1.4,Win32,59.53798523,,,space,9.9663,0,4,4,11,1,target,ultimate,"""Entraron sin pedir permiso"" —les incriminó seguro.",incriminar,1,,,,,,,,,,,,,,,,,,,,,,,
,,,,,,,,,,afs116,03-10-2023_15h53.52.817,spanish_exp2,2022.1.4,Win32,59.53798523,,,space,7.9443,0,5,5,6,1,target,penultimate,"""Confirma la cita para mañana"" —le encamino con ilusión. ",encaminar,1,,,,,,,,,,,,,,,,,,,,,,,
,,,,,,,,,,afs116,03-10-2023_15h53.52.817,spanish_exp2,2022.1.4,Win32,59.53798523,,,space,10.2836,0,6,6,12,1,target,penultimate,"""No habrá más cucarachas"" —extermino complacida.",exterminar,1,,,,,,,,,,,,,,,,,,,,,,,
,,,,,,,,,,afs116,03-10-2023_15h53.52.817,spanish_exp2,2022.1.4,Win32,59.53798523,,,space,6.9222,0,7,7,5,1,target,ultimate,"""Compré esta lámpara ayer"" —iluminó contenta.",iluminar,1,,,,,,,,,,,,,,,,,,,,,,,
,,,,,,,,,,afs116,03-10-2023_15h53.52.817,spanish_exp2,2022.1.4,Win32,59.53798523,,,space,8.2138,0,8,8,0,1,target,penultimate,"""No me gusta el té de manzanilla"" —abomino con certeza.",abominar,1,,,,,,,,,,,,,,,,,,,,,,,
,,,,,,,,,,afs116,03-10-2023_15h53.52.817,spanish_exp2,2022.1.4,Win32,59.53798523,,,space,9.44,0,9,9,8,1,target,penultimate,"""Este tiene menos azúcar"" —discrimino tímida.",discriminar,1,,,,,,,,,,,,,,,,,,,,,,,
,,,,,,,,,,afs116,03-10-2023_15h53.52.817,spanish_exp2,2022.1.4,Win32,59.53798523,,,space,9.6726,0,10,10,2,1,target,penultimate,"""Este no es mi número de teléfono"" —la descamino complacido.",descaminar,1,,,,,,,,,,,,,,,,,,,,,,,
,,,,,,,,,,afs116,03-10-2023_15h53.52.817,spanish_exp2,2022.1.4,Win32,59.53798523,,,space,8.9375,0,11,11,3,1,target,ultimate,"""El presidente del estado se encuentra enfermo"" —diseminó compungido.",diseminar,1,,,,,,,,,,,,,,,,,,,,,,,
,,,,,,,,,,afs116,03-10-2023_15h53.52.817,spanish_exp2,2022.1.4,Win32,59.53798523,,,space,8.5416,0,12,12,4,1,target,penultimate,"""Escriban la respuesta"" —los examino seriamente.",examinar,1,,,,,,,,,,,,,,,,,,,,,,,
,,,,,,,,,,afs116,03-10-2023_15h53.52.817,spanish_exp2,2022.1.4,Win32,59.53798523,,,space,9.9457,0,13,13,9,1,target,ultimate,"""No puedo cocinar sin quemar la comida"" —me desanimó compungida.",desanimar,1,,,,,,,,,,,,,,,,,,,,,,,
,,,,,,,,,,afs116,03-10-2023_15h53.52.817,spanish_exp2,2022.1.4,Win32,59.53798523,,,,,,,,,,,,,,,0,1,1,0,1,main_trial_block1.xlsx,,,,,,,,,,,,,,,,,
,,,,,,,,,,afs116,03-10-2023_15h53.52.817,spanish_exp2,2022.1.4,Win32,59.53798523,,,,,,,,,,,,,,,,,,,,,space,25.8469,1,0,1,0,1,,,,,,,,,,
,,,,,,,,,,afs116,03-10-2023_15h53.52.817,spanish_exp2,2022.1.4,Win32,59.53798523,,,space,9.9848,,,,,,target,ultimate,"""Entraron sin pedir permiso"" —les incriminó seguro.",incriminar,1,,,,,,,,,,,,,,0,0,0,11,1,,,,,
,,,,,,,,,,afs116,03-10-2023_15h53.52.817,spanish_exp2,2022.1.4,Win32,59.53798523,,,space,11.1385,,,,,,target,penultimate,"""Confirma la cita para mañana"" —le encamino con ilusión. ",encaminar,1,,,,,,,,,,,,,,0,1,1,6,1,,,,,
,,,,,,,,,,afs116,03-10-2023_15h53.52.817,spanish_exp2,2022.1.4,Win32,59.53798523,,,space,7.673,,,,,,target,penultimate,"""No son necesarios"" —los elimino segura.",eliminar,1,,,,,,,,,,,,,,0,2,2,10,1,,,,,
,,,,,,,,,,afs116,03-10-2023_15h53.52.817,spanish_exp2,2022.1.4,Win32,59.53798523,,,space,8.6582,,,,,,target,ultimate,"""No puedo cocinar sin quemar la comida"" —me desanimó compungida.",desanimar,1,,,,,,,,,,,,,,0,3,3,9,1,,,,,
,,,,,,,,,,afs116,03-10-2023_15h53.52.817,spanish_exp2,2022.1.4,Win32,59.53798523,,,space,6.5427,,,,,,target,ultimate,"""Me robaron"" —les recriminó con intensidad.",recriminar,1,,,,,,,,,,,,,,0,4,4,7,1,,,,,
,,,,,,,,,,afs116,03-10-2023_15h53.52.817,spanish_exp2,2022.1.4,Win32,59.53798523,,,space,6.9255,,,,,,target,penultimate,"""Este tiene menos azúcar"" —discrimino tímida.",discriminar,1,,,,,,,,,,,,,,0,5,5,8,1,,,,,
,,,,,,,,,,afs116,03-10-2023_15h53.52.817,spanish_exp2,2022.1.4,Win32,59.53798523,,,space,8.5969,,,,,,target,penultimate,"""No habrá más cucarachas"" —extermino complacida.",exterminar,1,,,,,,,,,,,,,,0,6,6,12,1,,,,,
,,,,,,,,,,afs116,03-10-2023_15h53.52.817,spanish_exp2,2022.1.4,Win32,59.53798523,,,space,12.7234,,,,,,target,penultimate,"""Escriban la respuesta"" —los examino seriamente.",examinar,1,,,,,,,,,,,,,,0,7,7,4,1,,,,,
,,,,,,,,,,afs116,03-10-2023_15h53.52.817,spanish_exp2,2022.1.4,Win32,59.53798523,,,space,10.6071,,,,,,target,penultimate,"""No me gusta el té de manzanilla"" —abomino con certeza.",abominar,1,,,,,,,,,,,,,,0,8,8,0,1,,,,,
,,,,,,,,,,afs116,03-10-2023_15h53.52.817,spanish_exp2,2022.1.4,Win32,59.53798523,,,space,9.2971,,,,,,target,ultimate,"""Compré esta lámpara ayer"" —iluminó contenta.",iluminar,1,,,,,,,,,,,,,,0,9,9,5,1,,,,,
,,,,,,,,,,afs116,03-10-2023_15h53.52.817,spanish_exp2,2022.1.4,Win32,59.53798523,,,space,9.7531,,,,,,target,ultimate,"""El presidente del estado se encuentra enfermo"" —diseminó compungido.",diseminar,1,,,,,,,,,,,,,,0,10,10,3,1,,,,,
,,,,,,,,,,afs116,03-10-2023_15h53.52.817,spanish_exp2,2022.1.4,Win32,59.53798523,,,space,8.8205,,,,,,target,ultimate,"""Retrato de un hombre triste"" —lo denominó complacido. ",denominar,1,,,,,,,,,,,,,,0,11,11,13,1,,,,,
,,,,,,,,,,afs116,03-10-2023_15h53.52.817,spanish_exp2,2022.1.4,Win32,59.53798523,,,space,8.9798,,,,,,target,ultimate,"""Con la lluvia el viento es muy fuerte"" —determinó complacida.",determinar,1,,,,,,,,,,,,,,0,12,12,1,1,,,,,
,,,,,,,,,,afs116,03-10-2023_15h53.52.817,spanish_exp2,2022.1.4,Win32,59.53798523,,,space,11.1155,,,,,,target,penultimate,"""Este no es mi número de teléfono"" —la descamino complacido.",descaminar,1,,,,,,,,,,,,,,0,13,13,2,1,,,,,
,,,,,,,,,,afs116,03-10-2023_15h53.52.817,spanish_exp2,2022.1.4,Win32,59.53798523,,,,,,,,,,,,,,,,,,,,main_trial_block1.xlsx,,,,,,,,,,,,,0,0,0,0,1
,,,,,,,,,,afs116,03-10-2023_15h53.52.817,spanish_exp2,2022.1.4,Win32,59.53798523,,,space,6.6093,,,,,,target,ultimate,"""Este es más fuerte"" —discriminó tímida.",discriminar,2,,,,,,,,,,,,,,0,0,0,8,1,,,,,
,,,,,,,,,,afs116,03-10-2023_15h53.52.817,spanish_exp2,2022.1.4,Win32,59.53798523,,,space,7.946,,,,,,target,ultimate,"""Este insecticida es muy eficaz"" —exterminó complacida.",exterminar,2,,,,,,,,,,,,,,0,1,1,12,1,,,,,
,,,,,,,,,,afs116,03-10-2023_15h53.52.817,spanish_exp2,2022.1.4,Win32,59.53798523,,,space,11.1037,,,,,,target,ultimate,"""Este es el camino más corto"" —la descaminó complacido.",descaminar,2,,,,,,,,,,,,,,0,2,2,2,1,,,,,
,,,,,,,,,,afs116,03-10-2023_15h53.52.817,spanish_exp2,2022.1.4,Win32,59.53798523,,,space,9.4033,,,,,,target,penultimate,"""La directora Pérez renuncia a su cargo"" —disemino compungido.",diseminar,2,,,,,,,,,,,,,,0,3,3,3,1,,,,,
,,,,,,,,,,afs116,03-10-2023_15h53.52.817,spanish_exp2,2022.1.4,Win32,59.53798523,,,space,5.8845,,,,,,target,penultimate,"""Los Osvald, culpables"" —les incrimino seguro.",incriminar,2,,,,,,,,,,,,,,0,4,4,11,1,,,,,
,,,,,,,,,,afs116,03-10-2023_15h53.52.817,spanish_exp2,2022.1.4,Win32,59.53798523,,,space,5.8739,,,,,,target,ultimate,"""Lee estos artículos"" —le encaminó con ilusión.",encaminar,2,,,,,,,,,,,,,,0,5,5,6,1,,,,,
,,,,,,,,,,afs116,03-10-2023_15h53.52.817,spanish_exp2,2022.1.4,Win32,59.53798523,,,space,12.6448,,,,,,target,penultimate,"""No me gusta su conducta"" —les recrimino con intensidad.",recriminar,2,,,,,,,,,,,,,,0,6,6,7,1,,,,,
,,,,,,,,,,afs116,03-10-2023_15h53.52.817,spanish_exp2,2022.1.4,Win32,59.53798523,,,space,8.0218,,,,,,target,penultimate,"""Se llamará beta"" —lo denomino complacido.",denominar,2,,,,,,,,,,,,,,0,7,7,13,1,,,,,
,,,,,,,,,,afs116,03-10-2023_15h53.52.817,spanish_exp2,2022.1.4,Win32,59.53798523,,,space,6.0613,,,,,,target,penultimate,"""No puedo estudiar matemáticas"" —me desanimo compungida.",desanimar,2,,,,,,,,,,,,,,0,8,8,9,1,,,,,
,,,,,,,,,,afs116,03-10-2023_15h53.52.817,spanish_exp2,2022.1.4,Win32,59.53798523,,,space,9.8092,,,,,,target,penultimate,"""La masa del átomo es medible"" —determino complacida.",determinar,2,,,,,,,,,,,,,,0,9,9,1,1,,,,,
,,,,,,,,,,afs116,03-10-2023_15h53.52.817,spanish_exp2,2022.1.4,Win32,59.53798523,,,space,6.5057,,,,,,target,penultimate,"""Estas son las luces nuevas"" —ilumino contenta.",iluminar,2,,,,,,,,,,,,,,0,10,10,5,1,,,,,
,,,,,,,,,,afs116,03-10-2023_15h53.52.817,spanish_exp2,2022.1.4,Win32,59.53798523,,,space,10.0056,,,,,,target,ultimate,"""Desarrollen esta ecuación"" —los examinó seriamente.",examinar,2,,,,,,,,,,,,,,0,11,11,4,1,,,,,
,,,,,,,,,,afs116,03-10-2023_15h53.52.817,spanish_exp2,2022.1.4,Win32,59.53798523,,,space,8.6158,,,,,,target,ultimate,"""No me gustan las corridas"" —abominó con certeza.",abominar,2,,,,,,,,,,,,,,0,12,12,0,1,,,,,
,,,,,,,,,,afs116,03-10-2023_15h53.52.817,spanish_exp2,2022.1.4,Win32,59.53798523,,,space,10.4461,,,,,,target,ultimate,"""Tarjeta roja"" —los eliminó segura.",eliminar,2,,,,,,,,,,,,,,0,13,13,10,1,,,,,
,,,,,,,,,,afs116,03-10-2023_15h53.52.817,spanish_exp2,2022.1.4,Win32,59.53798523,,,,,,,,,,,,,,,,,,,,main_trial_block2.xlsx,,,,,,,,,,,,,0,1,1,1,1
