key_resp.keys,key_resp.rt,key_resp_2.keys,key_resp_2.rt,trials_2.thisRepN,trials_2.thisTrialN,trials_2.thisN,trials_2.thisIndex,trials_2.ran,trialspanish,participant ID,date,expName,psychopyVersion,OS,frameRate,key_resp_3.keys,key_resp_3.rt,key_resp_4.keys,key_resp_4.rt,trials_randomizer.thisRepN,trials_randomizer.thisTrialN,trials_randomizer.thisN,trials_randomizer.thisIndex,trials_randomizer.ran,fillertarget,stress,wordspanish,verbspanish,rand_12,block_randomizer.thisRepN,block_randomizer.thisTrialN,block_randomizer.thisN,block_randomizer.thisIndex,block_randomizer.ran,condsFile,key_resp_5.keys,key_resp_5.rt,mainTrialReps.thisRepN,mainTrialReps.thisTrialN,mainTrialReps.thisN,mainTrialReps.thisIndex,mainTrialReps.ran,trials_randomizer2.thisRepN,trials_randomizer2.thisTrialN,trials_randomizer2.thisN,trials_randomizer2.thisIndex,trials_randomizer2.ran,block_randomizer2.thisRepN,block_randomizer2.thisTrialN,block_randomizer2.thisN,block_randomizer2.thisIndex,block_randomizer2.ran
space,30.1455,space,5.3479,0,0,0,1,1,"""Depende del clima"" —respondió claramente.",ake031,03-06-2023_16h51.50.191,spanish_exp2,2022.1.4,MacIntel,120.0048002,,,,,,,,,,,,,,,,,,,,,,,,,,,,,,,,,,,,,
,,space,4.1266,0,1,1,3,1,"""Te quiero mucho"" —suspiró contenta Teresa.",ake031,03-06-2023_16h51.50.191,spanish_exp2,2022.1.4,MacIntel,120.0048002,,,,,,,,,,,,,,,,,,,,,,,,,,,,,,,,,,,,,
,,space,4.0622,0,2,2,2,1,"""Me gustaría un café"" —pienso complacido.",ake031,03-06-2023_16h51.50.191,spanish_exp2,2022.1.4,MacIntel,120.0048002,,,,,,,,,,,,,,,,,,,,,,,,,,,,,,,,,,,,,
,,space,8.5687,0,3,3,0,1,"""Le regaló una camiseta a su sobrino"" —digo contento.",ake031,03-06-2023_16h51.50.191,spanish_exp2,2022.1.4,MacIntel,120.0048002,,,,,,,,,,,,,,,,,,,,,,,,,,,,,,,,,,,,,
,,,,,,,,,,ake031,03-06-2023_16h51.50.191,spanish_exp2,2022.1.4,MacIntel,120.0048002,space,11.5202,space,5.2949,0,0,0,11,1,target,ultimate,"""Entraron sin pedir permiso"" —les incriminó seguro.",incriminar,1,,,,,,,,,,,,,,,,,,,,,,,
,,,,,,,,,,ake031,03-06-2023_16h51.50.191,spanish_exp2,2022.1.4,MacIntel,120.0048002,,,space,5.995,0,1,1,2,1,target,penultimate,"""Este no es mi número de teléfono"" —la descamino complacido.",descaminar,1,,,,,,,,,,,,,,,,,,,,,,,
,,,,,,,,,,ake031,03-06-2023_16h51.50.191,spanish_exp2,2022.1.4,MacIntel,120.0048002,,,space,6.4627,0,2,2,12,1,target,penultimate,"""No habrá más cucarachas"" —extermino complacida.",exterminar,1,,,,,,,,,,,,,,,,,,,,,,,
,,,,,,,,,,ake031,03-06-2023_16h51.50.191,spanish_exp2,2022.1.4,MacIntel,120.0048002,,,space,6.8963,0,3,3,0,1,target,penultimate,"""No me gusta el té de manzanilla"" —abomino con certeza.",abominar,1,,,,,,,,,,,,,,,,,,,,,,,
,,,,,,,,,,ake031,03-06-2023_16h51.50.191,spanish_exp2,2022.1.4,MacIntel,120.0048002,,,space,6.6229,0,4,4,5,1,target,ultimate,"""Compré esta lámpara ayer"" —iluminó contenta.",iluminar,1,,,,,,,,,,,,,,,,,,,,,,,
,,,,,,,,,,ake031,03-06-2023_16h51.50.191,spanish_exp2,2022.1.4,MacIntel,120.0048002,,,space,7.5155,0,5,5,3,1,target,ultimate,"""El presidente del estado se encuentra enfermo"" —diseminó compungido.",diseminar,1,,,,,,,,,,,,,,,,,,,,,,,
,,,,,,,,,,ake031,03-06-2023_16h51.50.191,spanish_exp2,2022.1.4,MacIntel,120.0048002,,,space,6.1317,0,6,6,6,1,target,penultimate,"""Confirma la cita para mañana"" —le encamino con ilusión. ",encaminar,1,,,,,,,,,,,,,,,,,,,,,,,
,,,,,,,,,,ake031,03-06-2023_16h51.50.191,spanish_exp2,2022.1.4,MacIntel,120.0048002,,,space,7.6265,0,7,7,1,1,target,ultimate,"""Con la lluvia el viento es muy fuerte"" —determinó complacida.",determinar,1,,,,,,,,,,,,,,,,,,,,,,,
,,,,,,,,,,ake031,03-06-2023_16h51.50.191,spanish_exp2,2022.1.4,MacIntel,120.0048002,,,space,6.6609,0,8,8,13,1,target,ultimate,"""Retrato de un hombre triste"" —lo denominó complacido. ",denominar,1,,,,,,,,,,,,,,,,,,,,,,,
,,,,,,,,,,ake031,03-06-2023_16h51.50.191,spanish_exp2,2022.1.4,MacIntel,120.0048002,,,space,7.3217,0,9,9,9,1,target,ultimate,"""No puedo cocinar sin quemar la comida"" —me desanimó compungida.",desanimar,1,,,,,,,,,,,,,,,,,,,,,,,
,,,,,,,,,,ake031,03-06-2023_16h51.50.191,spanish_exp2,2022.1.4,MacIntel,120.0048002,,,space,4.9156,0,10,10,10,1,target,penultimate,"""No son necesarios"" —los elimino segura.",eliminar,1,,,,,,,,,,,,,,,,,,,,,,,
,,,,,,,,,,ake031,03-06-2023_16h51.50.191,spanish_exp2,2022.1.4,MacIntel,120.0048002,,,space,5.857,0,11,11,7,1,target,ultimate,"""Me robaron"" —les recriminó con intensidad.",recriminar,1,,,,,,,,,,,,,,,,,,,,,,,
,,,,,,,,,,ake031,03-06-2023_16h51.50.191,spanish_exp2,2022.1.4,MacIntel,120.0048002,,,space,5.6542,0,12,12,4,1,target,penultimate,"""Escriban la respuesta"" —los examino seriamente.",examinar,1,,,,,,,,,,,,,,,,,,,,,,,
,,,,,,,,,,ake031,03-06-2023_16h51.50.191,spanish_exp2,2022.1.4,MacIntel,120.0048002,,,space,6.0175,0,13,13,8,1,target,penultimate,"""Este tiene menos azúcar"" —discrimino tímida.",discriminar,1,,,,,,,,,,,,,,,,,,,,,,,
,,,,,,,,,,ake031,03-06-2023_16h51.50.191,spanish_exp2,2022.1.4,MacIntel,120.0048002,,,,,,,,,,,,,,,0,0,0,0,1,main_trial_block1.xlsx,,,,,,,,,,,,,,,,,
,,,,,,,,,,ake031,03-06-2023_16h51.50.191,spanish_exp2,2022.1.4,MacIntel,120.0048002,,,space,6.3224,0,0,0,3,1,target,penultimate,"""La directora Pérez renuncia a su cargo"" —disemino compungido.",diseminar,2,,,,,,,,,,,,,,,,,,,,,,,
,,,,,,,,,,ake031,03-06-2023_16h51.50.191,spanish_exp2,2022.1.4,MacIntel,120.0048002,,,space,6.4372,0,1,1,7,1,target,penultimate,"""No me gusta su conducta"" —les recrimino con intensidad.",recriminar,2,,,,,,,,,,,,,,,,,,,,,,,
,,,,,,,,,,ake031,03-06-2023_16h51.50.191,spanish_exp2,2022.1.4,MacIntel,120.0048002,,,space,4.2483,0,2,2,10,1,target,ultimate,"""Tarjeta roja"" —los eliminó segura.",eliminar,2,,,,,,,,,,,,,,,,,,,,,,,
,,,,,,,,,,ake031,03-06-2023_16h51.50.191,spanish_exp2,2022.1.4,MacIntel,120.0048002,,,space,5.9891,0,3,3,4,1,target,ultimate,"""Desarrollen esta ecuación"" —los examinó seriamente.",examinar,2,,,,,,,,,,,,,,,,,,,,,,,
,,,,,,,,,,ake031,03-06-2023_16h51.50.191,spanish_exp2,2022.1.4,MacIntel,120.0048002,,,space,12.6433,0,4,4,9,1,target,penultimate,"""No puedo estudiar matemáticas"" —me desanimo compungida.",desanimar,2,,,,,,,,,,,,,,,,,,,,,,,
,,,,,,,,,,ake031,03-06-2023_16h51.50.191,spanish_exp2,2022.1.4,MacIntel,120.0048002,,,space,4.6475,0,5,5,5,1,target,penultimate,"""Estas son las luces nuevas"" —ilumino contenta.",iluminar,2,,,,,,,,,,,,,,,,,,,,,,,
,,,,,,,,,,ake031,03-06-2023_16h51.50.191,spanish_exp2,2022.1.4,MacIntel,120.0048002,,,space,4.3057,0,6,6,8,1,target,ultimate,"""Este es más fuerte"" —discriminó tímida.",discriminar,2,,,,,,,,,,,,,,,,,,,,,,,
,,,,,,,,,,ake031,03-06-2023_16h51.50.191,spanish_exp2,2022.1.4,MacIntel,120.0048002,,,space,4.7117,0,7,7,0,1,target,ultimate,"""No me gustan las corridas"" —abominó con certeza.",abominar,2,,,,,,,,,,,,,,,,,,,,,,,
,,,,,,,,,,ake031,03-06-2023_16h51.50.191,spanish_exp2,2022.1.4,MacIntel,120.0048002,,,space,5.3414,0,8,8,2,1,target,ultimate,"""Este es el camino más corto"" —la descaminó complacido.",descaminar,2,,,,,,,,,,,,,,,,,,,,,,,
,,,,,,,,,,ake031,03-06-2023_16h51.50.191,spanish_exp2,2022.1.4,MacIntel,120.0048002,,,space,5.747,0,9,9,6,1,target,ultimate,"""Lee estos artículos"" —le encaminó con ilusión.",encaminar,2,,,,,,,,,,,,,,,,,,,,,,,
,,,,,,,,,,ake031,03-06-2023_16h51.50.191,spanish_exp2,2022.1.4,MacIntel,120.0048002,,,space,5.0984,0,10,10,13,1,target,penultimate,"""Se llamará beta"" —lo denomino complacido.",denominar,2,,,,,,,,,,,,,,,,,,,,,,,
,,,,,,,,,,ake031,03-06-2023_16h51.50.191,spanish_exp2,2022.1.4,MacIntel,120.0048002,,,space,6.0482,0,11,11,1,1,target,penultimate,"""La masa del átomo es medible"" —determino complacida.",determinar,2,,,,,,,,,,,,,,,,,,,,,,,
,,,,,,,,,,ake031,03-06-2023_16h51.50.191,spanish_exp2,2022.1.4,MacIntel,120.0048002,,,space,5.5568,0,12,12,11,1,target,penultimate,"""Los Osvald, culpables"" —les incrimino seguro.",incriminar,2,,,,,,,,,,,,,,,,,,,,,,,
,,,,,,,,,,ake031,03-06-2023_16h51.50.191,spanish_exp2,2022.1.4,MacIntel,120.0048002,,,space,6.5795,0,13,13,12,1,target,ultimate,"""Este insecticida es muy eficaz"" —exterminó complacida.",exterminar,2,,,,,,,,,,,,,,,,,,,,,,,
,,,,,,,,,,ake031,03-06-2023_16h51.50.191,spanish_exp2,2022.1.4,MacIntel,120.0048002,,,,,,,,,,,,,,,0,1,1,1,1,main_trial_block2.xlsx,,,,,,,,,,,,,,,,,
,,,,,,,,,,ake031,03-06-2023_16h51.50.191,spanish_exp2,2022.1.4,MacIntel,120.0048002,,,,,,,,,,,,,,,,,,,,,space,13.8301,0,0,0,0,1,,,,,,,,,,
,,,,,,,,,,ake031,03-06-2023_16h51.50.191,spanish_exp2,2022.1.4,MacIntel,120.0048002,,,space,5.5842,0,0,0,2,1,target,ultimate,"""Este es el camino más corto"" —la descaminó complacido.",descaminar,2,,,,,,,,,,,,,,,,,,,,,,,
,,,,,,,,,,ake031,03-06-2023_16h51.50.191,spanish_exp2,2022.1.4,MacIntel,120.0048002,,,space,4.9049,0,1,1,1,1,target,penultimate,"""La masa del átomo es medible"" —determino complacida.",determinar,2,,,,,,,,,,,,,,,,,,,,,,,
,,,,,,,,,,ake031,03-06-2023_16h51.50.191,spanish_exp2,2022.1.4,MacIntel,120.0048002,,,space,5.8875,0,2,2,5,1,target,penultimate,"""Estas son las luces nuevas"" —ilumino contenta.",iluminar,2,,,,,,,,,,,,,,,,,,,,,,,
,,,,,,,,,,ake031,03-06-2023_16h51.50.191,spanish_exp2,2022.1.4,MacIntel,120.0048002,,,space,5.6535,0,3,3,7,1,target,penultimate,"""No me gusta su conducta"" —les recrimino con intensidad.",recriminar,2,,,,,,,,,,,,,,,,,,,,,,,
,,,,,,,,,,ake031,03-06-2023_16h51.50.191,spanish_exp2,2022.1.4,MacIntel,120.0048002,,,space,4.5495,0,4,4,13,1,target,penultimate,"""Se llamará beta"" —lo denomino complacido.",denominar,2,,,,,,,,,,,,,,,,,,,,,,,
,,,,,,,,,,ake031,03-06-2023_16h51.50.191,spanish_exp2,2022.1.4,MacIntel,120.0048002,,,space,5.5922,0,5,5,9,1,target,penultimate,"""No puedo estudiar matemáticas"" —me desanimo compungida.",desanimar,2,,,,,,,,,,,,,,,,,,,,,,,
,,,,,,,,,,ake031,03-06-2023_16h51.50.191,spanish_exp2,2022.1.4,MacIntel,120.0048002,,,space,6.4975,0,6,6,12,1,target,ultimate,"""Este insecticida es muy eficaz"" —exterminó complacida.",exterminar,2,,,,,,,,,,,,,,,,,,,,,,,
,,,,,,,,,,ake031,03-06-2023_16h51.50.191,spanish_exp2,2022.1.4,MacIntel,120.0048002,,,space,6.3703,0,7,7,4,1,target,ultimate,"""Desarrollen esta ecuación"" —los examinó seriamente.",examinar,2,,,,,,,,,,,,,,,,,,,,,,,
,,,,,,,,,,ake031,03-06-2023_16h51.50.191,spanish_exp2,2022.1.4,MacIntel,120.0048002,,,space,5.8932,0,8,8,6,1,target,ultimate,"""Lee estos artículos"" —le encaminó con ilusión.",encaminar,2,,,,,,,,,,,,,,,,,,,,,,,
,,,,,,,,,,ake031,03-06-2023_16h51.50.191,spanish_exp2,2022.1.4,MacIntel,120.0048002,,,space,3.9256,0,9,9,10,1,target,ultimate,"""Tarjeta roja"" —los eliminó segura.",eliminar,2,,,,,,,,,,,,,,,,,,,,,,,
,,,,,,,,,,ake031,03-06-2023_16h51.50.191,spanish_exp2,2022.1.4,MacIntel,120.0048002,,,space,4.1511,0,10,10,8,1,target,ultimate,"""Este es más fuerte"" —discriminó tímida.",discriminar,2,,,,,,,,,,,,,,,,,,,,,,,
,,,,,,,,,,ake031,03-06-2023_16h51.50.191,spanish_exp2,2022.1.4,MacIntel,120.0048002,,,space,4.6332,0,11,11,11,1,target,penultimate,"""Los Osvald, culpables"" —les incrimino seguro.",incriminar,2,,,,,,,,,,,,,,,,,,,,,,,
,,,,,,,,,,ake031,03-06-2023_16h51.50.191,spanish_exp2,2022.1.4,MacIntel,120.0048002,,,space,5.6399,0,12,12,3,1,target,penultimate,"""La directora Pérez renuncia a su cargo"" —disemino compungido.",diseminar,2,,,,,,,,,,,,,,,,,,,,,,,
,,,,,,,,,,ake031,03-06-2023_16h51.50.191,spanish_exp2,2022.1.4,MacIntel,120.0048002,,,space,4.6861,0,13,13,0,1,target,ultimate,"""No me gustan las corridas"" —abominó con certeza.",abominar,2,,,,,,,,,,,,,,,,,,,,,,,
,,,,,,,,,,ake031,03-06-2023_16h51.50.191,spanish_exp2,2022.1.4,MacIntel,120.0048002,,,,,,,,,,,,,,,0,0,0,1,1,main_trial_block2.xlsx,,,,,,,,,,,,,,,,,
,,,,,,,,,,ake031,03-06-2023_16h51.50.191,spanish_exp2,2022.1.4,MacIntel,120.0048002,,,space,5.0439,0,0,0,8,1,target,penultimate,"""Este tiene menos azúcar"" —discrimino tímida.",discriminar,1,,,,,,,,,,,,,,,,,,,,,,,
,,,,,,,,,,ake031,03-06-2023_16h51.50.191,spanish_exp2,2022.1.4,MacIntel,120.0048002,,,space,6.2454,0,1,1,3,1,target,ultimate,"""El presidente del estado se encuentra enfermo"" —diseminó compungido.",diseminar,1,,,,,,,,,,,,,,,,,,,,,,,
,,,,,,,,,,ake031,03-06-2023_16h51.50.191,spanish_exp2,2022.1.4,MacIntel,120.0048002,,,space,4.626,0,2,2,12,1,target,penultimate,"""No habrá más cucarachas"" —extermino complacida.",exterminar,1,,,,,,,,,,,,,,,,,,,,,,,
,,,,,,,,,,ake031,03-06-2023_16h51.50.191,spanish_exp2,2022.1.4,MacIntel,120.0048002,,,space,6.4731,0,3,3,9,1,target,ultimate,"""No puedo cocinar sin quemar la comida"" —me desanimó compungida.",desanimar,1,,,,,,,,,,,,,,,,,,,,,,,
,,,,,,,,,,ake031,03-06-2023_16h51.50.191,spanish_exp2,2022.1.4,MacIntel,120.0048002,,,space,5.5622,0,4,4,11,1,target,ultimate,"""Entraron sin pedir permiso"" —les incriminó seguro.",incriminar,1,,,,,,,,,,,,,,,,,,,,,,,
,,,,,,,,,,ake031,03-06-2023_16h51.50.191,spanish_exp2,2022.1.4,MacIntel,120.0048002,,,space,4.5808,0,5,5,4,1,target,penultimate,"""Escriban la respuesta"" —los examino seriamente.",examinar,1,,,,,,,,,,,,,,,,,,,,,,,
,,,,,,,,,,ake031,03-06-2023_16h51.50.191,spanish_exp2,2022.1.4,MacIntel,120.0048002,,,space,4.2476,0,6,6,10,1,target,penultimate,"""No son necesarios"" —los elimino segura.",eliminar,1,,,,,,,,,,,,,,,,,,,,,,,
,,,,,,,,,,ake031,03-06-2023_16h51.50.191,spanish_exp2,2022.1.4,MacIntel,120.0048002,,,space,5.5443,0,7,7,13,1,target,ultimate,"""Retrato de un hombre triste"" —lo denominó complacido. ",denominar,1,,,,,,,,,,,,,,,,,,,,,,,
,,,,,,,,,,ake031,03-06-2023_16h51.50.191,spanish_exp2,2022.1.4,MacIntel,120.0048002,,,space,4.8692,0,8,8,5,1,target,ultimate,"""Compré esta lámpara ayer"" —iluminó contenta.",iluminar,1,,,,,,,,,,,,,,,,,,,,,,,
,,,,,,,,,,ake031,03-06-2023_16h51.50.191,spanish_exp2,2022.1.4,MacIntel,120.0048002,,,space,5.6203,0,9,9,1,1,target,ultimate,"""Con la lluvia el viento es muy fuerte"" —determinó complacida.",determinar,1,,,,,,,,,,,,,,,,,,,,,,,
,,,,,,,,,,ake031,03-06-2023_16h51.50.191,spanish_exp2,2022.1.4,MacIntel,120.0048002,,,space,5.6383,0,10,10,2,1,target,penultimate,"""Este no es mi número de teléfono"" —la descamino complacido.",descaminar,1,,,,,,,,,,,,,,,,,,,,,,,
,,,,,,,,,,ake031,03-06-2023_16h51.50.191,spanish_exp2,2022.1.4,MacIntel,120.0048002,,,space,4.9118,0,11,11,6,1,target,penultimate,"""Confirma la cita para mañana"" —le encamino con ilusión. ",encaminar,1,,,,,,,,,,,,,,,,,,,,,,,
,,,,,,,,,,ake031,03-06-2023_16h51.50.191,spanish_exp2,2022.1.4,MacIntel,120.0048002,,,space,6.3566,0,12,12,0,1,target,penultimate,"""No me gusta el té de manzanilla"" —abomino con certeza.",abominar,1,,,,,,,,,,,,,,,,,,,,,,,
,,,,,,,,,,ake031,03-06-2023_16h51.50.191,spanish_exp2,2022.1.4,MacIntel,120.0048002,,,space,4.6334,0,13,13,7,1,target,ultimate,"""Me robaron"" —les recriminó con intensidad.",recriminar,1,,,,,,,,,,,,,,,,,,,,,,,
,,,,,,,,,,ake031,03-06-2023_16h51.50.191,spanish_exp2,2022.1.4,MacIntel,120.0048002,,,,,,,,,,,,,,,0,1,1,0,1,main_trial_block1.xlsx,,,,,,,,,,,,,,,,,
,,,,,,,,,,ake031,03-06-2023_16h51.50.191,spanish_exp2,2022.1.4,MacIntel,120.0048002,,,,,,,,,,,,,,,,,,,,,space,10.8935,1,0,1,0,1,,,,,,,,,,
,,,,,,,,,,ake031,03-06-2023_16h51.50.191,spanish_exp2,2022.1.4,MacIntel,120.0048002,,,space,4.364,,,,,,target,penultimate,"""Se llamará beta"" —lo denomino complacido.",denominar,2,,,,,,,,,,,,,,0,0,0,13,1,,,,,
,,,,,,,,,,ake031,03-06-2023_16h51.50.191,spanish_exp2,2022.1.4,MacIntel,120.0048002,,,space,6.077,,,,,,target,ultimate,"""Lee estos artículos"" —le encaminó con ilusión.",encaminar,2,,,,,,,,,,,,,,0,1,1,6,1,,,,,
,,,,,,,,,,ake031,03-06-2023_16h51.50.191,spanish_exp2,2022.1.4,MacIntel,120.0048002,,,space,5.0365,,,,,,target,penultimate,"""Estas son las luces nuevas"" —ilumino contenta.",iluminar,2,,,,,,,,,,,,,,0,2,2,5,1,,,,,
,,,,,,,,,,ake031,03-06-2023_16h51.50.191,spanish_exp2,2022.1.4,MacIntel,120.0048002,,,space,5.3663,,,,,,target,penultimate,"""No puedo estudiar matemáticas"" —me desanimo compungida.",desanimar,2,,,,,,,,,,,,,,0,3,3,9,1,,,,,
,,,,,,,,,,ake031,03-06-2023_16h51.50.191,spanish_exp2,2022.1.4,MacIntel,120.0048002,,,space,7.8729,,,,,,target,penultimate,"""La masa del átomo es medible"" —determino complacida.",determinar,2,,,,,,,,,,,,,,0,4,4,1,1,,,,,
,,,,,,,,,,ake031,03-06-2023_16h51.50.191,spanish_exp2,2022.1.4,MacIntel,120.0048002,,,space,5.86,,,,,,target,penultimate,"""Los Osvald, culpables"" —les incrimino seguro.",incriminar,2,,,,,,,,,,,,,,0,5,5,11,1,,,,,
,,,,,,,,,,ake031,03-06-2023_16h51.50.191,spanish_exp2,2022.1.4,MacIntel,120.0048002,,,space,5.5295,,,,,,target,ultimate,"""Desarrollen esta ecuación"" —los examinó seriamente.",examinar,2,,,,,,,,,,,,,,0,6,6,4,1,,,,,
,,,,,,,,,,ake031,03-06-2023_16h51.50.191,spanish_exp2,2022.1.4,MacIntel,120.0048002,,,space,5.1031,,,,,,target,ultimate,"""Este es el camino más corto"" —la descaminó complacido.",descaminar,2,,,,,,,,,,,,,,0,7,7,2,1,,,,,
,,,,,,,,,,ake031,03-06-2023_16h51.50.191,spanish_exp2,2022.1.4,MacIntel,120.0048002,,,space,5.1782,,,,,,target,ultimate,"""No me gustan las corridas"" —abominó con certeza.",abominar,2,,,,,,,,,,,,,,0,8,8,0,1,,,,,
,,,,,,,,,,ake031,03-06-2023_16h51.50.191,spanish_exp2,2022.1.4,MacIntel,120.0048002,,,space,4.2332,,,,,,target,ultimate,"""Este es más fuerte"" —discriminó tímida.",discriminar,2,,,,,,,,,,,,,,0,9,9,8,1,,,,,
,,,,,,,,,,ake031,03-06-2023_16h51.50.191,spanish_exp2,2022.1.4,MacIntel,120.0048002,,,space,5.5216,,,,,,target,ultimate,"""Este insecticida es muy eficaz"" —exterminó complacida.",exterminar,2,,,,,,,,,,,,,,0,10,10,12,1,,,,,
,,,,,,,,,,ake031,03-06-2023_16h51.50.191,spanish_exp2,2022.1.4,MacIntel,120.0048002,,,space,5.3486,,,,,,target,penultimate,"""No me gusta su conducta"" —les recrimino con intensidad.",recriminar,2,,,,,,,,,,,,,,0,11,11,7,1,,,,,
,,,,,,,,,,ake031,03-06-2023_16h51.50.191,spanish_exp2,2022.1.4,MacIntel,120.0048002,,,space,4.5136,,,,,,target,ultimate,"""Tarjeta roja"" —los eliminó segura.",eliminar,2,,,,,,,,,,,,,,0,12,12,10,1,,,,,
,,,,,,,,,,ake031,03-06-2023_16h51.50.191,spanish_exp2,2022.1.4,MacIntel,120.0048002,,,space,5.6129,,,,,,target,penultimate,"""La directora Pérez renuncia a su cargo"" —disemino compungido.",diseminar,2,,,,,,,,,,,,,,0,13,13,3,1,,,,,
,,,,,,,,,,ake031,03-06-2023_16h51.50.191,spanish_exp2,2022.1.4,MacIntel,120.0048002,,,,,,,,,,,,,,,,,,,,main_trial_block2.xlsx,,,,,,,,,,,,,0,0,0,1,1
,,,,,,,,,,ake031,03-06-2023_16h51.50.191,spanish_exp2,2022.1.4,MacIntel,120.0048002,,,space,5.2313,,,,,,target,ultimate,"""Retrato de un hombre triste"" —lo denominó complacido. ",denominar,1,,,,,,,,,,,,,,0,0,0,13,1,,,,,
,,,,,,,,,,ake031,03-06-2023_16h51.50.191,spanish_exp2,2022.1.4,MacIntel,120.0048002,,,space,4.9823,,,,,,target,ultimate,"""Con la lluvia el viento es muy fuerte"" —determinó complacida.",determinar,1,,,,,,,,,,,,,,0,1,1,1,1,,,,,
,,,,,,,,,,ake031,03-06-2023_16h51.50.191,spanish_exp2,2022.1.4,MacIntel,120.0048002,,,space,5.647,,,,,,target,penultimate,"""No habrá más cucarachas"" —extermino complacida.",exterminar,1,,,,,,,,,,,,,,0,2,2,12,1,,,,,
,,,,,,,,,,ake031,03-06-2023_16h51.50.191,spanish_exp2,2022.1.4,MacIntel,120.0048002,,,space,4.1731,,,,,,target,ultimate,"""Me robaron"" —les recriminó con intensidad.",recriminar,1,,,,,,,,,,,,,,0,3,3,7,1,,,,,
,,,,,,,,,,ake031,03-06-2023_16h51.50.191,spanish_exp2,2022.1.4,MacIntel,120.0048002,,,space,5.134,,,,,,target,penultimate,"""Confirma la cita para mañana"" —le encamino con ilusión. ",encaminar,1,,,,,,,,,,,,,,0,4,4,6,1,,,,,
,,,,,,,,,,ake031,03-06-2023_16h51.50.191,spanish_exp2,2022.1.4,MacIntel,120.0048002,,,space,4.8396,,,,,,target,ultimate,"""Entraron sin pedir permiso"" —les incriminó seguro.",incriminar,1,,,,,,,,,,,,,,0,5,5,11,1,,,,,
,,,,,,,,,,ake031,03-06-2023_16h51.50.191,spanish_exp2,2022.1.4,MacIntel,120.0048002,,,space,4.8244,,,,,,target,ultimate,"""Compré esta lámpara ayer"" —iluminó contenta.",iluminar,1,,,,,,,,,,,,,,0,6,6,5,1,,,,,
,,,,,,,,,,ake031,03-06-2023_16h51.50.191,spanish_exp2,2022.1.4,MacIntel,120.0048002,,,space,5.3736,,,,,,target,ultimate,"""No puedo cocinar sin quemar la comida"" —me desanimó compungida.",desanimar,1,,,,,,,,,,,,,,0,7,7,9,1,,,,,
,,,,,,,,,,ake031,03-06-2023_16h51.50.191,spanish_exp2,2022.1.4,MacIntel,120.0048002,,,space,5.8897,,,,,,target,penultimate,"""Este no es mi número de teléfono"" —la descamino complacido.",descaminar,1,,,,,,,,,,,,,,0,8,8,2,1,,,,,
,,,,,,,,,,ake031,03-06-2023_16h51.50.191,spanish_exp2,2022.1.4,MacIntel,120.0048002,,,space,6.1582,,,,,,target,ultimate,"""El presidente del estado se encuentra enfermo"" —diseminó compungido.",diseminar,1,,,,,,,,,,,,,,0,9,9,3,1,,,,,
,,,,,,,,,,ake031,03-06-2023_16h51.50.191,spanish_exp2,2022.1.4,MacIntel,120.0048002,,,space,5.3225,,,,,,target,penultimate,"""Este tiene menos azúcar"" —discrimino tímida.",discriminar,1,,,,,,,,,,,,,,0,10,10,8,1,,,,,
,,,,,,,,,,ake031,03-06-2023_16h51.50.191,spanish_exp2,2022.1.4,MacIntel,120.0048002,,,space,5.2849,,,,,,target,penultimate,"""No son necesarios"" —los elimino segura.",eliminar,1,,,,,,,,,,,,,,0,11,11,10,1,,,,,
,,,,,,,,,,ake031,03-06-2023_16h51.50.191,spanish_exp2,2022.1.4,MacIntel,120.0048002,,,space,5.8291,,,,,,target,penultimate,"""Escriban la respuesta"" —los examino seriamente.",examinar,1,,,,,,,,,,,,,,0,12,12,4,1,,,,,
,,,,,,,,,,ake031,03-06-2023_16h51.50.191,spanish_exp2,2022.1.4,MacIntel,120.0048002,,,space,5.8162,,,,,,target,penultimate,"""No me gusta el té de manzanilla"" —abomino con certeza.",abominar,1,,,,,,,,,,,,,,0,13,13,0,1,,,,,
,,,,,,,,,,ake031,03-06-2023_16h51.50.191,spanish_exp2,2022.1.4,MacIntel,120.0048002,,,,,,,,,,,,,,,,,,,,main_trial_block1.xlsx,,,,,,,,,,,,,0,1,1,0,1
