key_resp.keys,key_resp.rt,key_resp_2.keys,key_resp_2.rt,trials_2.thisRepN,trials_2.thisTrialN,trials_2.thisN,trials_2.thisIndex,trials_2.ran,trialcatalan,participant ID,date,expName,psychopyVersion,OS,frameRate,key_resp_3.keys,key_resp_3.rt,key_resp_4.keys,key_resp_4.rt,trial_randomizer.thisRepN,trial_randomizer.thisTrialN,trial_randomizer.thisN,trial_randomizer.thisIndex,trial_randomizer.ran,fillertarget,stress,wordcatalan,verbcatalan,rand_12,block_randomizer.thisRepN,block_randomizer.thisTrialN,block_randomizer.thisN,block_randomizer.thisIndex,block_randomizer.ran,condsFile,key_resp_5.keys,key_resp_5.rt,mainTrialRep.thisRepN,mainTrialRep.thisTrialN,mainTrialRep.thisN,mainTrialRep.thisIndex,mainTrialRep.ran,trial_randomizer2.thisRepN,trial_randomizer2.thisTrialN,trial_randomizer2.thisN,trial_randomizer2.thisIndex,trial_randomizer2.ran,block_randomizer2.thisRepN,block_randomizer2.thisTrialN,block_randomizer2.thisN,block_randomizer2.thisIndex,block_randomizer2.ran
space,183.7261,space,13.6544,0,0,0,2,1,"""Voldria una mica de cafè"" —pensa complaguda.",ala054,02/18/2023_19h22.37.478,catalan_exp2,2022.1.4,Win32,60.20832079,,,,,,,,,,,,,,,,,,,,,,,,,,,,,,,,,,,,,
,,space,5.8743,0,1,1,1,1,"""Depèn de la temporada"" —explica seriòs.",ala054,02/18/2023_19h22.37.478,catalan_exp2,2022.1.4,Win32,60.20832079,,,,,,,,,,,,,,,,,,,,,,,,,,,,,,,,,,,,,
,,space,6.4096,0,2,2,0,1,"""Ha regalat un pastís al seu nebot"" —va pensar confiat.",ala054,02/18/2023_19h22.37.478,catalan_exp2,2022.1.4,Win32,60.20832079,,,,,,,,,,,,,,,,,,,,,,,,,,,,,,,,,,,,,
,,space,6.3369,0,3,3,3,1,"""T'estimo molt"" —va sospirar content.",ala054,02/18/2023_19h22.37.478,catalan_exp2,2022.1.4,Win32,60.20832079,,,,,,,,,,,,,,,,,,,,,,,,,,,,,,,,,,,,,
,,,,,,,,,,ala054,02/18/2023_19h22.37.478,catalan_exp2,2022.1.4,Win32,60.20832079,space,9.3646,space,5.7353,0,0,0,7,1,target,ultimate,"""És culpa teva"" —li va recriminar seriosa.",recriminar,1,,,,,,,,,,,,,,,,,,,,,,,
,,,,,,,,,,ala054,02/18/2023_19h22.37.478,catalan_exp2,2022.1.4,Win32,60.20832079,,,space,5.6602,0,1,1,8,1,target,penultimate,"""Aquest té menys sucre"" —discrimina tímid.",discriminar,1,,,,,,,,,,,,,,,,,,,,,,,
,,,,,,,,,,ala054,02/18/2023_19h22.37.478,catalan_exp2,2022.1.4,Win32,60.20832079,,,space,6.2321,0,2,2,4,1,target,penultimate,"""Escriguin la resposta"" —els examina clarament.",examinar,1,,,,,,,,,,,,,,,,,,,,,,,
,,,,,,,,,,ala054,02/18/2023_19h22.37.478,catalan_exp2,2022.1.4,Win32,60.20832079,,,space,6.4403,0,3,3,12,1,target,penultimate,"""No hi haurà més bestioles"" —extermina complaguda.",exterminar,1,,,,,,,,,,,,,,,,,,,,,,,
,,,,,,,,,,ala054,02/18/2023_19h22.37.478,catalan_exp2,2022.1.4,Win32,60.20832079,,,space,6.7444,0,4,4,0,1,target,penultimate,"""No m'agrada el te de camamilla"" —abomina plena.",abominar,1,,,,,,,,,,,,,,,,,,,,,,,
,,,,,,,,,,ala054,02/18/2023_19h22.37.478,catalan_exp2,2022.1.4,Win32,60.20832079,,,space,6.3708,0,5,5,10,1,target,penultimate,"""No són necessaris"" —elimina segura.",eliminar,1,,,,,,,,,,,,,,,,,,,,,,,
,,,,,,,,,,ala054,02/18/2023_19h22.37.478,catalan_exp2,2022.1.4,Win32,60.20832079,,,space,6.9989,0,6,6,9,1,target,ultimate,"""No puc cuinar sense cremar el menjar"" —es va desanimar seriós.",desanimar,1,,,,,,,,,,,,,,,,,,,,,,,
,,,,,,,,,,ala054,02/18/2023_19h22.37.478,catalan_exp2,2022.1.4,Win32,60.20832079,,,space,6.6876,0,7,7,6,1,target,penultimate,"""Confirmin la cita per demà"" —les encamina tímida.",encaminar,1,,,,,,,,,,,,,,,,,,,,,,,
,,,,,,,,,,ala054,02/18/2023_19h22.37.478,catalan_exp2,2022.1.4,Win32,60.20832079,,,space,6.6558,0,8,8,13,1,target,ultimate,"""Retrat d'un home trist"" —va denominar concret.",denominar,1,,,,,,,,,,,,,,,,,,,,,,,
,,,,,,,,,,ala054,02/18/2023_19h22.37.478,catalan_exp2,2022.1.4,Win32,60.20832079,,,space,6.7327,0,9,9,11,1,target,ultimate,"""Van entrar sense demanar permís"" —les va incriminar confiat.",incriminar,1,,,,,,,,,,,,,,,,,,,,,,,
,,,,,,,,,,ala054,02/18/2023_19h22.37.478,catalan_exp2,2022.1.4,Win32,60.20832079,,,space,6.7484,0,10,10,1,1,target,ultimate,"""Amb la pluja el vent és molt fort"" —va determinar complaguda.",determinar,1,,,,,,,,,,,,,,,,,,,,,,,
,,,,,,,,,,ala054,02/18/2023_19h22.37.478,catalan_exp2,2022.1.4,Win32,60.20832079,,,space,7.4576,0,11,11,2,1,target,penultimate,"""Aquest no és el meu número de telèfon"" —la descamina complagut.",descaminar,1,,,,,,,,,,,,,,,,,,,,,,,
,,,,,,,,,,ala054,02/18/2023_19h22.37.478,catalan_exp2,2022.1.4,Win32,60.20832079,,,space,7.5639,0,12,12,3,1,target,ultimate,"""El president de l'estat està malalt"" —va disseminar prematura.",disseminar,1,,,,,,,,,,,,,,,,,,,,,,,
,,,,,,,,,,ala054,02/18/2023_19h22.37.478,catalan_exp2,2022.1.4,Win32,60.20832079,,,space,7.2185,0,13,13,5,1,target,ultimate,"""Acabo de comprar aquest llum"" —va il·luminar content.",illuminar,1,,,,,,,,,,,,,,,,,,,,,,,
,,,,,,,,,,ala054,02/18/2023_19h22.37.478,catalan_exp2,2022.1.4,Win32,60.20832079,,,,,,,,,,,,,,,0,0,0,0,1,main_trial_block1.xlsx,,,,,,,,,,,,,,,,,
,,,,,,,,,,ala054,02/18/2023_19h22.37.478,catalan_exp2,2022.1.4,Win32,60.20832079,,,space,5.4396,0,0,0,6,1,target,ultimate,"""Llegiu aquests articles"" —les va encaminar tímida.",encaminar,2,,,,,,,,,,,,,,,,,,,,,,,
,,,,,,,,,,ala054,02/18/2023_19h22.37.478,catalan_exp2,2022.1.4,Win32,60.20832079,,,space,5.6303,0,1,1,11,1,target,penultimate,"""Vostès són les culpables"" —les incrimina confiat.",incriminar,2,,,,,,,,,,,,,,,,,,,,,,,
,,,,,,,,,,ala054,02/18/2023_19h22.37.478,catalan_exp2,2022.1.4,Win32,60.20832079,,,space,7.9216,0,2,2,3,1,target,penultimate,"""La senyora Martí renuncia al seu càrrec"" —dissemina prematura.",disseminar,2,,,,,,,,,,,,,,,,,,,,,,,
,,,,,,,,,,ala054,02/18/2023_19h22.37.478,catalan_exp2,2022.1.4,Win32,60.20832079,,,space,5.5885,0,3,3,5,1,target,penultimate,"""Bon Nadal a tots"" —il·lumina content.",illuminar,2,,,,,,,,,,,,,,,,,,,,,,,
,,,,,,,,,,ala054,02/18/2023_19h22.37.478,catalan_exp2,2022.1.4,Win32,60.20832079,,,space,6.9406,0,4,4,2,1,target,ultimate,"""Aquest és el camí més curt"" —la va descaminar complagut.",descaminar,2,,,,,,,,,,,,,,,,,,,,,,,
,,,,,,,,,,ala054,02/18/2023_19h22.37.478,catalan_exp2,2022.1.4,Win32,60.20832079,,,space,6.4565,0,5,5,9,1,target,penultimate,"""No passaré mai l'examen"" —es desanima seriós.",desanimar,2,,,,,,,,,,,,,,,,,,,,,,,
,,,,,,,,,,ala054,02/18/2023_19h22.37.478,catalan_exp2,2022.1.4,Win32,60.20832079,,,space,6.3348,0,6,6,8,1,target,ultimate,"""Aquest és més fort"" —va discriminar tímid.",discriminar,2,,,,,,,,,,,,,,,,,,,,,,,
,,,,,,,,,,ala054,02/18/2023_19h22.37.478,catalan_exp2,2022.1.4,Win32,60.20832079,,,space,5.3366,0,7,7,7,1,target,penultimate,"""No m'agrada que em truquis"" —li recrimina seriosa.",recriminar,2,,,,,,,,,,,,,,,,,,,,,,,
,,,,,,,,,,ala054,02/18/2023_19h22.37.478,catalan_exp2,2022.1.4,Win32,60.20832079,,,space,6.6885,0,8,8,1,1,target,penultimate,"""La massa de l'àtom és mesurable"" —determina complaguda.",determinar,2,,,,,,,,,,,,,,,,,,,,,,,
,,,,,,,,,,ala054,02/18/2023_19h22.37.478,catalan_exp2,2022.1.4,Win32,60.20832079,,,space,6.2609,0,9,9,12,1,target,ultimate,"""Aquest verí va molt bé"" —va exterminar complaguda.",exterminar,2,,,,,,,,,,,,,,,,,,,,,,,
,,,,,,,,,,ala054,02/18/2023_19h22.37.478,catalan_exp2,2022.1.4,Win32,60.20832079,,,space,6.2416,0,10,10,10,1,target,ultimate,"""Érem a casa a l'hora del crim"" —va eliminar segura.",eliminar,2,,,,,,,,,,,,,,,,,,,,,,,
,,,,,,,,,,ala054,02/18/2023_19h22.37.478,catalan_exp2,2022.1.4,Win32,60.20832079,,,space,7.2432,0,11,11,0,1,target,ultimate,"""No m'agraden gens les curses de braus"" —va abominar plena.",abominar,2,,,,,,,,,,,,,,,,,,,,,,,
,,,,,,,,,,ala054,02/18/2023_19h22.37.478,catalan_exp2,2022.1.4,Win32,60.20832079,,,space,6.2168,0,12,12,13,1,target,penultimate,"""Aquest gen es diu beta"" —denomina concret.",denominar,2,,,,,,,,,,,,,,,,,,,,,,,
,,,,,,,,,,ala054,02/18/2023_19h22.37.478,catalan_exp2,2022.1.4,Win32,60.20832079,,,space,6.3135,0,13,13,4,1,target,ultimate,"""Facin aquesta equació"" —els va examinar clarament.",examinar,2,,,,,,,,,,,,,,,,,,,,,,,
,,,,,,,,,,ala054,02/18/2023_19h22.37.478,catalan_exp2,2022.1.4,Win32,60.20832079,,,,,,,,,,,,,,,0,1,1,1,1,main_trial_block2.xlsx,,,,,,,,,,,,,,,,,
,,,,,,,,,,ala054,02/18/2023_19h22.37.478,catalan_exp2,2022.1.4,Win32,60.20832079,,,,,,,,,,,,,,,,,,,,,space,9.4258,0,0,0,0,1,,,,,,,,,,
,,,,,,,,,,ala054,02/18/2023_19h22.37.478,catalan_exp2,2022.1.4,Win32,60.20832079,,,space,5.3459,0,0,0,8,1,target,penultimate,"""Aquest té menys sucre"" —discrimina tímid.",discriminar,1,,,,,,,,,,,,,,,,,,,,,,,
,,,,,,,,,,ala054,02/18/2023_19h22.37.478,catalan_exp2,2022.1.4,Win32,60.20832079,,,space,5.6552,0,1,1,12,1,target,penultimate,"""No hi haurà més bestioles"" —extermina complaguda.",exterminar,1,,,,,,,,,,,,,,,,,,,,,,,
,,,,,,,,,,ala054,02/18/2023_19h22.37.478,catalan_exp2,2022.1.4,Win32,60.20832079,,,space,5.1396,0,2,2,7,1,target,ultimate,"""És culpa teva"" —li va recriminar seriosa.",recriminar,1,,,,,,,,,,,,,,,,,,,,,,,
,,,,,,,,,,ala054,02/18/2023_19h22.37.478,catalan_exp2,2022.1.4,Win32,60.20832079,,,space,6.3515,0,3,3,9,1,target,ultimate,"""No puc cuinar sense cremar el menjar"" —es va desanimar seriós.",desanimar,1,,,,,,,,,,,,,,,,,,,,,,,
,,,,,,,,,,ala054,02/18/2023_19h22.37.478,catalan_exp2,2022.1.4,Win32,60.20832079,,,space,5.799,0,4,4,5,1,target,ultimate,"""Acabo de comprar aquest llum"" —va il·luminar content.",illuminar,1,,,,,,,,,,,,,,,,,,,,,,,
,,,,,,,,,,ala054,02/18/2023_19h22.37.478,catalan_exp2,2022.1.4,Win32,60.20832079,,,space,5.0511,0,5,5,4,1,target,penultimate,"""Escriguin la resposta"" —els examina clarament.",examinar,1,,,,,,,,,,,,,,,,,,,,,,,
,,,,,,,,,,ala054,02/18/2023_19h22.37.478,catalan_exp2,2022.1.4,Win32,60.20832079,,,space,6.61,0,6,6,2,1,target,penultimate,"""Aquest no és el meu número de telèfon"" —la descamina complagut.",descaminar,1,,,,,,,,,,,,,,,,,,,,,,,
,,,,,,,,,,ala054,02/18/2023_19h22.37.478,catalan_exp2,2022.1.4,Win32,60.20832079,,,space,6.3832,0,7,7,1,1,target,ultimate,"""Amb la pluja el vent és molt fort"" —va determinar complaguda.",determinar,1,,,,,,,,,,,,,,,,,,,,,,,
,,,,,,,,,,ala054,02/18/2023_19h22.37.478,catalan_exp2,2022.1.4,Win32,60.20832079,,,space,6.139,0,8,8,0,1,target,penultimate,"""No m'agrada el te de camamilla"" —abomina plena.",abominar,1,,,,,,,,,,,,,,,,,,,,,,,
,,,,,,,,,,ala054,02/18/2023_19h22.37.478,catalan_exp2,2022.1.4,Win32,60.20832079,,,space,6.1602,0,9,9,3,1,target,ultimate,"""El president de l'estat està malalt"" —va disseminar prematura.",disseminar,1,,,,,,,,,,,,,,,,,,,,,,,
,,,,,,,,,,ala054,02/18/2023_19h22.37.478,catalan_exp2,2022.1.4,Win32,60.20832079,,,space,4.6856,0,10,10,10,1,target,penultimate,"""No són necessaris"" —elimina segura.",eliminar,1,,,,,,,,,,,,,,,,,,,,,,,
,,,,,,,,,,ala054,02/18/2023_19h22.37.478,catalan_exp2,2022.1.4,Win32,60.20832079,,,space,5.42,0,11,11,13,1,target,ultimate,"""Retrat d'un home trist"" —va denominar concret.",denominar,1,,,,,,,,,,,,,,,,,,,,,,,
,,,,,,,,,,ala054,02/18/2023_19h22.37.478,catalan_exp2,2022.1.4,Win32,60.20832079,,,space,5.2693,0,12,12,6,1,target,penultimate,"""Confirmin la cita per demà"" —les encamina tímida.",encaminar,1,,,,,,,,,,,,,,,,,,,,,,,
,,,,,,,,,,ala054,02/18/2023_19h22.37.478,catalan_exp2,2022.1.4,Win32,60.20832079,,,space,6.8161,0,13,13,11,1,target,ultimate,"""Van entrar sense demanar permís"" —les va incriminar confiat.",incriminar,1,,,,,,,,,,,,,,,,,,,,,,,
,,,,,,,,,,ala054,02/18/2023_19h22.37.478,catalan_exp2,2022.1.4,Win32,60.20832079,,,,,,,,,,,,,,,0,0,0,0,1,main_trial_block1.xlsx,,,,,,,,,,,,,,,,,
,,,,,,,,,,ala054,02/18/2023_19h22.37.478,catalan_exp2,2022.1.4,Win32,60.20832079,,,space,6.2063,0,0,0,10,1,target,ultimate,"""Érem a casa a l'hora del crim"" —va eliminar segura.",eliminar,2,,,,,,,,,,,,,,,,,,,,,,,
,,,,,,,,,,ala054,02/18/2023_19h22.37.478,catalan_exp2,2022.1.4,Win32,60.20832079,,,space,6.0127,0,1,1,2,1,target,ultimate,"""Aquest és el camí més curt"" —la va descaminar complagut.",descaminar,2,,,,,,,,,,,,,,,,,,,,,,,
,,,,,,,,,,ala054,02/18/2023_19h22.37.478,catalan_exp2,2022.1.4,Win32,60.20832079,,,space,5.2517,0,2,2,13,1,target,penultimate,"""Aquest gen es diu beta"" —denomina concret.",denominar,2,,,,,,,,,,,,,,,,,,,,,,,
,,,,,,,,,,ala054,02/18/2023_19h22.37.478,catalan_exp2,2022.1.4,Win32,60.20832079,,,space,5.5521,0,3,3,8,1,target,ultimate,"""Aquest és més fort"" —va discriminar tímid.",discriminar,2,,,,,,,,,,,,,,,,,,,,,,,
,,,,,,,,,,ala054,02/18/2023_19h22.37.478,catalan_exp2,2022.1.4,Win32,60.20832079,,,space,4.157,0,4,4,5,1,target,penultimate,"""Bon Nadal a tots"" —il·lumina content.",illuminar,2,,,,,,,,,,,,,,,,,,,,,,,
,,,,,,,,,,ala054,02/18/2023_19h22.37.478,catalan_exp2,2022.1.4,Win32,60.20832079,,,space,6.4132,0,5,5,9,1,target,penultimate,"""No passaré mai l'examen"" —es desanima seriós.",desanimar,2,,,,,,,,,,,,,,,,,,,,,,,
,,,,,,,,,,ala054,02/18/2023_19h22.37.478,catalan_exp2,2022.1.4,Win32,60.20832079,,,space,5.6214,0,6,6,1,1,target,penultimate,"""La massa de l'àtom és mesurable"" —determina complaguda.",determinar,2,,,,,,,,,,,,,,,,,,,,,,,
,,,,,,,,,,ala054,02/18/2023_19h22.37.478,catalan_exp2,2022.1.4,Win32,60.20832079,,,space,6.0794,0,7,7,12,1,target,ultimate,"""Aquest verí va molt bé"" —va exterminar complaguda.",exterminar,2,,,,,,,,,,,,,,,,,,,,,,,
,,,,,,,,,,ala054,02/18/2023_19h22.37.478,catalan_exp2,2022.1.4,Win32,60.20832079,,,space,5.7676,0,8,8,4,1,target,ultimate,"""Facin aquesta equació"" —els va examinar clarament.",examinar,2,,,,,,,,,,,,,,,,,,,,,,,
,,,,,,,,,,ala054,02/18/2023_19h22.37.478,catalan_exp2,2022.1.4,Win32,60.20832079,,,space,5.3457,0,9,9,6,1,target,ultimate,"""Llegiu aquests articles"" —les va encaminar tímida.",encaminar,2,,,,,,,,,,,,,,,,,,,,,,,
,,,,,,,,,,ala054,02/18/2023_19h22.37.478,catalan_exp2,2022.1.4,Win32,60.20832079,,,space,5.8944,0,10,10,11,1,target,penultimate,"""Vostès són les culpables"" —les incrimina confiat.",incriminar,2,,,,,,,,,,,,,,,,,,,,,,,
,,,,,,,,,,ala054,02/18/2023_19h22.37.478,catalan_exp2,2022.1.4,Win32,60.20832079,,,space,6.8062,0,11,11,3,1,target,penultimate,"""La senyora Martí renuncia al seu càrrec"" —dissemina prematura.",disseminar,2,,,,,,,,,,,,,,,,,,,,,,,
,,,,,,,,,,ala054,02/18/2023_19h22.37.478,catalan_exp2,2022.1.4,Win32,60.20832079,,,space,5.8617,0,12,12,7,1,target,penultimate,"""No m'agrada que em truquis"" —li recrimina seriosa.",recriminar,2,,,,,,,,,,,,,,,,,,,,,,,
,,,,,,,,,,ala054,02/18/2023_19h22.37.478,catalan_exp2,2022.1.4,Win32,60.20832079,,,space,7.1906,0,13,13,0,1,target,ultimate,"""No m'agraden gens les curses de braus"" —va abominar plena.",abominar,2,,,,,,,,,,,,,,,,,,,,,,,
,,,,,,,,,,ala054,02/18/2023_19h22.37.478,catalan_exp2,2022.1.4,Win32,60.20832079,,,,,,,,,,,,,,,0,1,1,1,1,main_trial_block2.xlsx,,,,,,,,,,,,,,,,,
,,,,,,,,,,ala054,02/18/2023_19h22.37.478,catalan_exp2,2022.1.4,Win32,60.20832079,,,,,,,,,,,,,,,,,,,,,space,12.522,1,0,1,0,1,,,,,,,,,,
,,,,,,,,,,ala054,02/18/2023_19h22.37.478,catalan_exp2,2022.1.4,Win32,60.20832079,,,space,6.1266,,,,,,target,penultimate,"""Escriguin la resposta"" —els examina clarament.",examinar,1,,,,,,,,,,,,,,0,0,0,4,1,,,,,
,,,,,,,,,,ala054,02/18/2023_19h22.37.478,catalan_exp2,2022.1.4,Win32,60.20832079,,,space,5.3344,,,,,,target,ultimate,"""Retrat d'un home trist"" —va denominar concret.",denominar,1,,,,,,,,,,,,,,0,1,1,13,1,,,,,
,,,,,,,,,,ala054,02/18/2023_19h22.37.478,catalan_exp2,2022.1.4,Win32,60.20832079,,,space,5.5231,,,,,,target,penultimate,"""Confirmin la cita per demà"" —les encamina tímida.",encaminar,1,,,,,,,,,,,,,,0,2,2,6,1,,,,,
,,,,,,,,,,ala054,02/18/2023_19h22.37.478,catalan_exp2,2022.1.4,Win32,60.20832079,,,space,6.5018,,,,,,target,ultimate,"""Amb la pluja el vent és molt fort"" —va determinar complaguda.",determinar,1,,,,,,,,,,,,,,0,3,3,1,1,,,,,
,,,,,,,,,,ala054,02/18/2023_19h22.37.478,catalan_exp2,2022.1.4,Win32,60.20832079,,,space,6.0821,,,,,,target,penultimate,"""Aquest no és el meu número de telèfon"" —la descamina complagut.",descaminar,1,,,,,,,,,,,,,,0,4,4,2,1,,,,,
,,,,,,,,,,ala054,02/18/2023_19h22.37.478,catalan_exp2,2022.1.4,Win32,60.20832079,,,space,7.4201,,,,,,target,ultimate,"""Van entrar sense demanar permís"" —les va incriminar confiat.",incriminar,1,,,,,,,,,,,,,,0,5,5,11,1,,,,,
,,,,,,,,,,ala054,02/18/2023_19h22.37.478,catalan_exp2,2022.1.4,Win32,60.20832079,,,space,5.5324,,,,,,target,penultimate,"""No hi haurà més bestioles"" —extermina complaguda.",exterminar,1,,,,,,,,,,,,,,0,6,6,12,1,,,,,
,,,,,,,,,,ala054,02/18/2023_19h22.37.478,catalan_exp2,2022.1.4,Win32,60.20832079,,,space,5.71,,,,,,target,ultimate,"""És culpa teva"" —li va recriminar seriosa.",recriminar,1,,,,,,,,,,,,,,0,7,7,7,1,,,,,
,,,,,,,,,,ala054,02/18/2023_19h22.37.478,catalan_exp2,2022.1.4,Win32,60.20832079,,,space,4.9358,,,,,,target,penultimate,"""Aquest té menys sucre"" —discrimina tímid.",discriminar,1,,,,,,,,,,,,,,0,8,8,8,1,,,,,
,,,,,,,,,,ala054,02/18/2023_19h22.37.478,catalan_exp2,2022.1.4,Win32,60.20832079,,,space,4.8286,,,,,,target,penultimate,"""No són necessaris"" —elimina segura.",eliminar,1,,,,,,,,,,,,,,0,9,9,10,1,,,,,
,,,,,,,,,,ala054,02/18/2023_19h22.37.478,catalan_exp2,2022.1.4,Win32,60.20832079,,,space,5.6495,,,,,,target,penultimate,"""No m'agrada el te de camamilla"" —abomina plena.",abominar,1,,,,,,,,,,,,,,0,10,10,0,1,,,,,
,,,,,,,,,,ala054,02/18/2023_19h22.37.478,catalan_exp2,2022.1.4,Win32,60.20832079,,,space,5.3326,,,,,,target,ultimate,"""Acabo de comprar aquest llum"" —va il·luminar content.",illuminar,1,,,,,,,,,,,,,,0,11,11,5,1,,,,,
,,,,,,,,,,ala054,02/18/2023_19h22.37.478,catalan_exp2,2022.1.4,Win32,60.20832079,,,space,6.7805,,,,,,target,ultimate,"""No puc cuinar sense cremar el menjar"" —es va desanimar seriós.",desanimar,1,,,,,,,,,,,,,,0,12,12,9,1,,,,,
,,,,,,,,,,ala054,02/18/2023_19h22.37.478,catalan_exp2,2022.1.4,Win32,60.20832079,,,space,5.9464,,,,,,target,ultimate,"""El president de l'estat està malalt"" —va disseminar prematura.",disseminar,1,,,,,,,,,,,,,,0,13,13,3,1,,,,,
,,,,,,,,,,ala054,02/18/2023_19h22.37.478,catalan_exp2,2022.1.4,Win32,60.20832079,,,,,,,,,,,,,,,,,,,,main_trial_block1.xlsx,,,,,,,,,,,,,0,0,0,0,1
,,,,,,,,,,ala054,02/18/2023_19h22.37.478,catalan_exp2,2022.1.4,Win32,60.20832079,,,space,5.7372,,,,,,target,penultimate,"""La massa de l'àtom és mesurable"" —determina complaguda.",determinar,2,,,,,,,,,,,,,,0,0,0,1,1,,,,,
,,,,,,,,,,ala054,02/18/2023_19h22.37.478,catalan_exp2,2022.1.4,Win32,60.20832079,,,space,6.2311,,,,,,target,ultimate,"""No m'agraden gens les curses de braus"" —va abominar plena.",abominar,2,,,,,,,,,,,,,,0,1,1,0,1,,,,,
,,,,,,,,,,ala054,02/18/2023_19h22.37.478,catalan_exp2,2022.1.4,Win32,60.20832079,,,space,6.6786,,,,,,target,penultimate,"""La senyora Martí renuncia al seu càrrec"" —dissemina prematura.",disseminar,2,,,,,,,,,,,,,,0,2,2,3,1,,,,,
,,,,,,,,,,ala054,02/18/2023_19h22.37.478,catalan_exp2,2022.1.4,Win32,60.20832079,,,space,6.0057,,,,,,target,penultimate,"""No passaré mai l'examen"" —es desanima seriós.",desanimar,2,,,,,,,,,,,,,,0,3,3,9,1,,,,,
,,,,,,,,,,ala054,02/18/2023_19h22.37.478,catalan_exp2,2022.1.4,Win32,60.20832079,,,space,6.0112,,,,,,target,ultimate,"""Facin aquesta equació"" —els va examinar clarament.",examinar,2,,,,,,,,,,,,,,0,4,4,4,1,,,,,
,,,,,,,,,,ala054,02/18/2023_19h22.37.478,catalan_exp2,2022.1.4,Win32,60.20832079,,,space,5.1802,,,,,,target,penultimate,"""No m'agrada que em truquis"" —li recrimina seriosa.",recriminar,2,,,,,,,,,,,,,,0,5,5,7,1,,,,,
,,,,,,,,,,ala054,02/18/2023_19h22.37.478,catalan_exp2,2022.1.4,Win32,60.20832079,,,space,5.2827,,,,,,target,penultimate,"""Vostès són les culpables"" —les incrimina confiat.",incriminar,2,,,,,,,,,,,,,,0,6,6,11,1,,,,,
,,,,,,,,,,ala054,02/18/2023_19h22.37.478,catalan_exp2,2022.1.4,Win32,60.20832079,,,space,6.2441,,,,,,target,ultimate,"""Llegiu aquests articles"" —les va encaminar tímida.",encaminar,2,,,,,,,,,,,,,,0,7,7,6,1,,,,,
,,,,,,,,,,ala054,02/18/2023_19h22.37.478,catalan_exp2,2022.1.4,Win32,60.20832079,,,space,5.0036,,,,,,target,penultimate,"""Aquest gen es diu beta"" —denomina concret.",denominar,2,,,,,,,,,,,,,,0,8,8,13,1,,,,,
,,,,,,,,,,ala054,02/18/2023_19h22.37.478,catalan_exp2,2022.1.4,Win32,60.20832079,,,space,6.1399,,,,,,target,ultimate,"""Érem a casa a l'hora del crim"" —va eliminar segura.",eliminar,2,,,,,,,,,,,,,,0,9,9,10,1,,,,,
,,,,,,,,,,ala054,02/18/2023_19h22.37.478,catalan_exp2,2022.1.4,Win32,60.20832079,,,space,6.1372,,,,,,target,ultimate,"""Aquest verí va molt bé"" —va exterminar complaguda.",exterminar,2,,,,,,,,,,,,,,0,10,10,12,1,,,,,
,,,,,,,,,,ala054,02/18/2023_19h22.37.478,catalan_exp2,2022.1.4,Win32,60.20832079,,,space,4.8341,,,,,,target,penultimate,"""Bon Nadal a tots"" —il·lumina content.",illuminar,2,,,,,,,,,,,,,,0,11,11,5,1,,,,,
,,,,,,,,,,ala054,02/18/2023_19h22.37.478,catalan_exp2,2022.1.4,Win32,60.20832079,,,space,5.8362,,,,,,target,ultimate,"""Aquest és més fort"" —va discriminar tímid.",discriminar,2,,,,,,,,,,,,,,0,12,12,8,1,,,,,
,,,,,,,,,,ala054,02/18/2023_19h22.37.478,catalan_exp2,2022.1.4,Win32,60.20832079,,,space,6.4333,,,,,,target,ultimate,"""Aquest és el camí més curt"" —la va descaminar complagut.",descaminar,2,,,,,,,,,,,,,,0,13,13,2,1,,,,,
,,,,,,,,,,ala054,02/18/2023_19h22.37.478,catalan_exp2,2022.1.4,Win32,60.20832079,,,,,,,,,,,,,,,,,,,,main_trial_block2.xlsx,,,,,,,,,,,,,0,1,1,1,1
