key_resp.keys,key_resp.rt,key_resp_2.keys,key_resp_2.rt,trials_2.thisRepN,trials_2.thisTrialN,trials_2.thisN,trials_2.thisIndex,trials_2.ran,trialenglish,participant ID,date,expName,psychopyVersion,OS,frameRate,key_resp_3.keys,key_resp_3.rt,key_resp_4.keys,key_resp_4.rt,trials_randomizer.thisRepN,trials_randomizer.thisTrialN,trials_randomizer.thisN,trials_randomizer.thisIndex,trials_randomizer.ran,fillertarget,vowel_quality_change,stress,wordenglish,verbenglish,rand_12,block_randomizer.thisRepN,block_randomizer.thisTrialN,block_randomizer.thisN,block_randomizer.thisIndex,block_randomizer.ran,condsFile,key_resp_5.keys,key_resp_5.rt,mainTrialsReps.thisRepN,mainTrialsReps.thisTrialN,mainTrialsReps.thisN,mainTrialsReps.thisIndex,mainTrialsReps.ran,trials_randomizer2.thisRepN,trials_randomizer2.thisTrialN,trials_randomizer2.thisN,trials_randomizer2.thisIndex,trials_randomizer2.ran,block_randomizer2.thisRepN,block_randomizer2.thisTrialN,block_randomizer2.thisN,block_randomizer2.thisIndex,block_randomizer2.ran
space,174.9011,space,9.0458,0,0,0,2,1,"No, we couldn't SEE the flowers, but we could smell them.",ala059,03/01/2023_07h20.12.883,english_experiment2,2022.1.4,Win32,60.04924038,,,,,,,,,,,,,,,,,,,,,,,,,,,,,,,,,,,,,,
,,space,5.5651,0,1,1,3,1,"No, he won't WASH the dishes, but he will dry them.",ala059,03/01/2023_07h20.12.883,english_experiment2,2022.1.4,Win32,60.04924038,,,,,,,,,,,,,,,,,,,,,,,,,,,,,,,,,,,,,,
,,space,4.6724,0,2,2,1,1,"No, there wasn't DEW on the ground, but there was frost.",ala059,03/01/2023_07h20.12.883,english_experiment2,2022.1.4,Win32,60.04924038,,,,,,,,,,,,,,,,,,,,,,,,,,,,,,,,,,,,,,
,,space,4.57,0,3,3,0,1,"No, she doesn't EAT the plants, but she grows them.",ala059,03/01/2023_07h20.12.883,english_experiment2,2022.1.4,Win32,60.04924038,,,,,,,,,,,,,,,,,,,,,,,,,,,,,,,,,,,,,,
,,,,,,,,,,ala059,03/01/2023_07h20.12.883,english_experiment2,2022.1.4,Win32,60.04924038,space,7.415,space,6.8587,0,0,0,10,1,target,1,ultimate,"No, she didn't use her FINGER to compact the soil, but she used her hand.",compact,2,,,,,,,,,,,,,,,,,,,,,,,
,,,,,,,,,,ala059,03/01/2023_07h20.12.883,english_experiment2,2022.1.4,Win32,60.04924038,,,space,5.7979,0,1,1,9,1,target,1,penultimate,"No, there wasn’t a SPIDER on the combine windshield, but there was a fly.",combine,2,,,,,,,,,,,,,,,,,,,,,,,
,,,,,,,,,,ala059,03/01/2023_07h20.12.883,english_experiment2,2022.1.4,Win32,60.04924038,,,space,4.7562,0,2,2,5,1,target,0,penultimate,"No, I didn't want YOUR insight on the project, but his.",insight,2,,,,,,,,,,,,,,,,,,,,,,,
,,,,,,,,,,ala059,03/01/2023_07h20.12.883,english_experiment2,2022.1.4,Win32,60.04924038,,,space,5.5378,0,3,3,0,1,target,0,ultimate,"No, her CALCIUM isn’t below normal, but her iron is.",billow,2,,,,,,,,,,,,,,,,,,,,,,,
,,,,,,,,,,ala059,03/01/2023_07h20.12.883,english_experiment2,2022.1.4,Win32,60.04924038,,,space,5.6376,0,4,4,2,1,target,0,ultimate,"No, the PARENTS won’t forbear the mortgage, but the bank will.",forebear,2,,,,,,,,,,,,,,,,,,,,,,,
,,,,,,,,,,ala059,03/01/2023_07h20.12.883,english_experiment2,2022.1.4,Win32,60.04924038,,,space,5.2013,0,5,5,4,1,target,0,ultimate,"No, his SINGING doesn’t impress us, but his cooking does.",impress,2,,,,,,,,,,,,,,,,,,,,,,,
,,,,,,,,,,ala059,03/01/2023_07h20.12.883,english_experiment2,2022.1.4,Win32,60.04924038,,,space,6.5943,0,6,6,12,1,target,1,ultimate,"No, they don’t use MICROSOFT to convert files; they use Adobe.",convert,2,,,,,,,,,,,,,,,,,,,,,,,
,,,,,,,,,,ala059,03/01/2023_07h20.12.883,english_experiment2,2022.1.4,Win32,60.04924038,,,space,5.9541,0,7,7,8,1,target,0,ultimate,"No, my MOTHER wasn’t a trustee of the company, but my sister was.",trusty,2,,,,,,,,,,,,,,,,,,,,,,,
,,,,,,,,,,ala059,03/01/2023_07h20.12.883,english_experiment2,2022.1.4,Win32,60.04924038,,,space,5.1188,0,8,8,16,1,target,1,ultimate,"No, THEY will not object to our methods, but he will.",object,2,,,,,,,,,,,,,,,,,,,,,,,
,,,,,,,,,,ala059,03/01/2023_07h20.12.883,english_experiment2,2022.1.4,Win32,60.04924038,,,space,4.9462,0,9,9,11,1,target,1,penultimate,"No, HE didn’t sign the contract today, but she did.",contract,2,,,,,,,,,,,,,,,,,,,,,,,
,,,,,,,,,,ala059,03/01/2023_07h20.12.883,english_experiment2,2022.1.4,Win32,60.04924038,,,space,5.6256,0,10,10,17,1,target,1,penultimate,"No, they didn’t BUY the record in the shop, but they listened to it.",record,2,,,,,,,,,,,,,,,,,,,,,,,
,,,,,,,,,,ala059,03/01/2023_07h20.12.883,english_experiment2,2022.1.4,Win32,60.04924038,,,space,4.9177,0,11,11,7,1,target,0,penultimate,"No, I didn't RUN in the relay, but I walked.",relay,2,,,,,,,,,,,,,,,,,,,,,,,
,,,,,,,,,,ala059,03/01/2023_07h20.12.883,english_experiment2,2022.1.4,Win32,60.04924038,,,space,5.8682,0,12,12,15,1,target,1,penultimate,"No, the SCIENCE project isn’t due tomorrow, but the math project is.",project,2,,,,,,,,,,,,,,,,,,,,,,,
,,,,,,,,,,ala059,03/01/2023_07h20.12.883,english_experiment2,2022.1.4,Win32,60.04924038,,,space,4.9641,0,13,13,18,1,target,1,ultimate,"No, THEY won't subject you to questioning, but I will.",subject,2,,,,,,,,,,,,,,,,,,,,,,,
,,,,,,,,,,ala059,03/01/2023_07h20.12.883,english_experiment2,2022.1.4,Win32,60.04924038,,,space,5.891,0,14,14,13,1,target,1,penultimate,"No, he didn’t CATCH the convict yesterday, but he saw him.",convict,2,,,,,,,,,,,,,,,,,,,,,,,
,,,,,,,,,,ala059,03/01/2023_07h20.12.883,english_experiment2,2022.1.4,Win32,60.04924038,,,space,5.2836,0,15,15,14,1,target,1,ultimate,"No, the FATHER won’t desert the army, but his son will.",desert,2,,,,,,,,,,,,,,,,,,,,,,,
,,,,,,,,,,ala059,03/01/2023_07h20.12.883,english_experiment2,2022.1.4,Win32,60.04924038,,,space,4.7341,0,16,16,1,1,target,0,penultimate,"No, MONDAY isn’t the discount day, but Friday is.",discount,2,,,,,,,,,,,,,,,,,,,,,,,
,,,,,,,,,,ala059,03/01/2023_07h20.12.883,english_experiment2,2022.1.4,Win32,60.04924038,,,space,5.2814,0,17,17,3,1,target,0,penultimate,"No, the DRINKS weren’t of great import to him, but the dinner was.",import,2,,,,,,,,,,,,,,,,,,,,,,,
,,,,,,,,,,ala059,03/01/2023_07h20.12.883,english_experiment2,2022.1.4,Win32,60.04924038,,,space,4.9574,0,18,18,6,1,target,0,ultimate,"No, her FATHER won’t permit her to go, but her mother will.",permit,2,,,,,,,,,,,,,,,,,,,,,,,
,,,,,,,,,,ala059,03/01/2023_07h20.12.883,english_experiment2,2022.1.4,Win32,60.04924038,,,,,,,,,,,,,,,,0,0,0,1,1,main_trial_block2.xlsx,,,,,,,,,,,,,,,,,
,,,,,,,,,,ala059,03/01/2023_07h20.12.883,english_experiment2,2022.1.4,Win32,60.04924038,,,space,4.7028,0,0,0,1,1,target,0,ultimate,"No, THEY don’t discount his abilities, we do.",discount,1,,,,,,,,,,,,,,,,,,,,,,,
,,,,,,,,,,ala059,03/01/2023_07h20.12.883,english_experiment2,2022.1.4,Win32,60.04924038,,,space,6.0841,0,1,1,2,1,target,0,penultimate,"No, he didn’t SHAME his forebear today, he honored him.",forebear,1,,,,,,,,,,,,,,,,,,,,,,,
,,,,,,,,,,ala059,03/01/2023_07h20.12.883,english_experiment2,2022.1.4,Win32,60.04924038,,,space,5.5372,0,2,2,7,1,target,0,ultimate,"No, my PARENTS won’t relay my message, but my sister will.",relay,1,,,,,,,,,,,,,,,,,,,,,,,
,,,,,,,,,,ala059,03/01/2023_07h20.12.883,english_experiment2,2022.1.4,Win32,60.04924038,,,space,4.6522,0,3,3,6,1,target,0,penultimate,"No, HER permit wasn't suspended, but mine was.",permit,1,,,,,,,,,,,,,,,,,,,,,,,
,,,,,,,,,,ala059,03/01/2023_07h20.12.883,english_experiment2,2022.1.4,Win32,60.04924038,,,space,5.0805,0,4,4,4,1,target,0,penultimate,"No, THEY don’t want an impress of their hands, but the kids do.",impress,1,,,,,,,,,,,,,,,,,,,,,,,
,,,,,,,,,,ala059,03/01/2023_07h20.12.883,english_experiment2,2022.1.4,Win32,60.04924038,,,space,5.9829,0,5,5,8,1,target,0,penultimate,"No, I didn’t SELL my trusty gps, but I broke it.",trusty,1,,,,,,,,,,,,,,,,,,,,,,,
,,,,,,,,,,ala059,03/01/2023_07h20.12.883,english_experiment2,2022.1.4,Win32,60.04924038,,,space,5.6174,0,6,6,15,1,target,1,ultimate,"No, the PARENTS can’t project their voices, but their son can.",project,1,,,,,,,,,,,,,,,,,,,,,,,
,,,,,,,,,,ala059,03/01/2023_07h20.12.883,english_experiment2,2022.1.4,Win32,60.04924038,,,space,5.3805,0,7,7,12,1,target,1,penultimate,"No, there weren't FIVE converts that year, but there were two.",convert,1,,,,,,,,,,,,,,,,,,,,,,,
,,,,,,,,,,ala059,03/01/2023_07h20.12.883,english_experiment2,2022.1.4,Win32,60.04924038,,,space,5.5373,0,8,8,0,1,target,0,penultimate,"No, the DRESS didn't billow in the wind, but the curtains did.",billow,1,,,,,,,,,,,,,,,,,,,,,,,
,,,,,,,,,,ala059,03/01/2023_07h20.12.883,english_experiment2,2022.1.4,Win32,60.04924038,,,space,5.6902,0,9,9,16,1,target,1,penultimate,"No, he didn’t LOOK at the object on the shelf, he stared at it.",object,1,,,,,,,,,,,,,,,,,,,,,,,
,,,,,,,,,,ala059,03/01/2023_07h20.12.883,english_experiment2,2022.1.4,Win32,60.04924038,,,space,6.7809,0,10,10,5,1,target,0,ultimate,"No, the LEADER doesn’t incite violence, but his advisors do.",insight,1,,,,,,,,,,,,,,,,,,,,,,,
,,,,,,,,,,ala059,03/01/2023_07h20.12.883,english_experiment2,2022.1.4,Win32,60.04924038,,,space,5.8669,0,11,11,10,1,target,1,penultimate,"No, she doesn’t OWN the compact car, she leases it.",compact,1,,,,,,,,,,,,,,,,,,,,,,,
,,,,,,,,,,ala059,03/01/2023_07h20.12.883,english_experiment2,2022.1.4,Win32,60.04924038,,,space,5.9473,0,12,12,13,1,target,1,ultimate,"No, the JUDGE will not convict him, but the jury will.",convict,1,,,,,,,,,,,,,,,,,,,,,,,
,,,,,,,,,,ala059,03/01/2023_07h20.12.883,english_experiment2,2022.1.4,Win32,60.04924038,,,space,6.5098,0,13,13,9,1,target,1,ultimate,"No, don't use a SPOON to combine the ingredients, use a beater.",combine,1,,,,,,,,,,,,,,,,,,,,,,,
,,,,,,,,,,ala059,03/01/2023_07h20.12.883,english_experiment2,2022.1.4,Win32,60.04924038,,,space,5.2335,0,14,14,17,1,target,1,ultimate,"No, he doesn’t HATE to record his voice, he loves it.",record,1,,,,,,,,,,,,,,,,,,,,,,,
,,,,,,,,,,ala059,03/01/2023_07h20.12.883,english_experiment2,2022.1.4,Win32,60.04924038,,,space,4.8699,0,15,15,11,1,target,1,ultimate,"No, WE won’t contract the disease, but you will.",contract,1,,,,,,,,,,,,,,,,,,,,,,,
,,,,,,,,,,ala059,03/01/2023_07h20.12.883,english_experiment2,2022.1.4,Win32,60.04924038,,,space,6.0538,0,16,16,18,1,target,1,penultimate,"No, SHE wasn't the subject of the painting, but I was.",subject,1,,,,,,,,,,,,,,,,,,,,,,,
,,,,,,,,,,ala059,03/01/2023_07h20.12.883,english_experiment2,2022.1.4,Win32,60.04924038,,,space,5.4873,0,17,17,14,1,target,1,penultimate,"No, she doesn’t LOVE the desert landscape, she hates it.",desert,1,,,,,,,,,,,,,,,,,,,,,,,
,,,,,,,,,,ala059,03/01/2023_07h20.12.883,english_experiment2,2022.1.4,Win32,60.04924038,,,space,6.1952,0,18,18,3,1,target,0,ultimate,"No, THEY won’t import more cars, but the government will.",import,1,,,,,,,,,,,,,,,,,,,,,,,
,,,,,,,,,,ala059,03/01/2023_07h20.12.883,english_experiment2,2022.1.4,Win32,60.04924038,,,,,,,,,,,,,,,,0,1,1,0,1,main_trial_block1.xlsx,,,,,,,,,,,,,,,,,
,,,,,,,,,,ala059,03/01/2023_07h20.12.883,english_experiment2,2022.1.4,Win32,60.04924038,,,,,,,,,,,,,,,,,,,,,,space,12.0812,0,0,0,0,1,,,,,,,,,,
,,,,,,,,,,ala059,03/01/2023_07h20.12.883,english_experiment2,2022.1.4,Win32,60.04924038,,,space,5.1022,0,0,0,5,1,target,0,penultimate,"No, I didn't want YOUR insight on the project, but his.",insight,2,,,,,,,,,,,,,,,,,,,,,,,
,,,,,,,,,,ala059,03/01/2023_07h20.12.883,english_experiment2,2022.1.4,Win32,60.04924038,,,space,5.1351,0,1,1,0,1,target,0,ultimate,"No, her CALCIUM isn’t below normal, but her iron is.",billow,2,,,,,,,,,,,,,,,,,,,,,,,
,,,,,,,,,,ala059,03/01/2023_07h20.12.883,english_experiment2,2022.1.4,Win32,60.04924038,,,space,6.9186,0,2,2,10,1,target,1,ultimate,"No, she didn't use her FINGER to compact the soil, but she used her hand.",compact,2,,,,,,,,,,,,,,,,,,,,,,,
,,,,,,,,,,ala059,03/01/2023_07h20.12.883,english_experiment2,2022.1.4,Win32,60.04924038,,,space,5.8434,0,3,3,9,1,target,1,penultimate,"No, there wasn’t a SPIDER on the combine windshield, but there was a fly.",combine,2,,,,,,,,,,,,,,,,,,,,,,,
,,,,,,,,,,ala059,03/01/2023_07h20.12.883,english_experiment2,2022.1.4,Win32,60.04924038,,,space,4.765,0,4,4,6,1,target,0,ultimate,"No, her FATHER won’t permit her to go, but her mother will.",permit,2,,,,,,,,,,,,,,,,,,,,,,,
,,,,,,,,,,ala059,03/01/2023_07h20.12.883,english_experiment2,2022.1.4,Win32,60.04924038,,,space,5.2646,0,5,5,13,1,target,1,penultimate,"No, he didn’t CATCH the convict yesterday, but he saw him.",convict,2,,,,,,,,,,,,,,,,,,,,,,,
,,,,,,,,,,ala059,03/01/2023_07h20.12.883,english_experiment2,2022.1.4,Win32,60.04924038,,,space,6.3111,0,6,6,12,1,target,1,ultimate,"No, they don’t use MICROSOFT to convert files; they use Adobe.",convert,2,,,,,,,,,,,,,,,,,,,,,,,
,,,,,,,,,,ala059,03/01/2023_07h20.12.883,english_experiment2,2022.1.4,Win32,60.04924038,,,space,5.7138,0,7,7,8,1,target,0,ultimate,"No, my MOTHER wasn’t a trustee of the company, but my sister was.",trusty,2,,,,,,,,,,,,,,,,,,,,,,,
,,,,,,,,,,ala059,03/01/2023_07h20.12.883,english_experiment2,2022.1.4,Win32,60.04924038,,,space,5.7354,0,8,8,15,1,target,1,penultimate,"No, the SCIENCE project isn’t due tomorrow, but the math project is.",project,2,,,,,,,,,,,,,,,,,,,,,,,
,,,,,,,,,,ala059,03/01/2023_07h20.12.883,english_experiment2,2022.1.4,Win32,60.04924038,,,space,5.3269,0,9,9,17,1,target,1,penultimate,"No, they didn’t BUY the record in the shop, but they listened to it.",record,2,,,,,,,,,,,,,,,,,,,,,,,
,,,,,,,,,,ala059,03/01/2023_07h20.12.883,english_experiment2,2022.1.4,Win32,60.04924038,,,space,5.376,0,10,10,11,1,target,1,penultimate,"No, HE didn’t sign the contract today, but she did.",contract,2,,,,,,,,,,,,,,,,,,,,,,,
,,,,,,,,,,ala059,03/01/2023_07h20.12.883,english_experiment2,2022.1.4,Win32,60.04924038,,,space,5.9522,0,11,11,2,1,target,0,ultimate,"No, the PARENTS won’t forbear the mortgage, but the bank will.",forebear,2,,,,,,,,,,,,,,,,,,,,,,,
,,,,,,,,,,ala059,03/01/2023_07h20.12.883,english_experiment2,2022.1.4,Win32,60.04924038,,,space,4.8532,0,12,12,7,1,target,0,penultimate,"No, I didn't RUN in the relay, but I walked.",relay,2,,,,,,,,,,,,,,,,,,,,,,,
,,,,,,,,,,ala059,03/01/2023_07h20.12.883,english_experiment2,2022.1.4,Win32,60.04924038,,,space,5.7522,0,13,13,18,1,target,1,ultimate,"No, THEY won't subject you to questioning, but I will.",subject,2,,,,,,,,,,,,,,,,,,,,,,,
,,,,,,,,,,ala059,03/01/2023_07h20.12.883,english_experiment2,2022.1.4,Win32,60.04924038,,,space,5.1883,0,14,14,3,1,target,0,penultimate,"No, the DRINKS weren’t of great import to him, but the dinner was.",import,2,,,,,,,,,,,,,,,,,,,,,,,
,,,,,,,,,,ala059,03/01/2023_07h20.12.883,english_experiment2,2022.1.4,Win32,60.04924038,,,space,5.438,0,15,15,4,1,target,0,ultimate,"No, his SINGING doesn’t impress us, but his cooking does.",impress,2,,,,,,,,,,,,,,,,,,,,,,,
,,,,,,,,,,ala059,03/01/2023_07h20.12.883,english_experiment2,2022.1.4,Win32,60.04924038,,,space,5.3823,0,16,16,14,1,target,1,ultimate,"No, the FATHER won’t desert the army, but his son will.",desert,2,,,,,,,,,,,,,,,,,,,,,,,
,,,,,,,,,,ala059,03/01/2023_07h20.12.883,english_experiment2,2022.1.4,Win32,60.04924038,,,space,4.9484,0,17,17,16,1,target,1,ultimate,"No, THEY will not object to our methods, but he will.",object,2,,,,,,,,,,,,,,,,,,,,,,,
,,,,,,,,,,ala059,03/01/2023_07h20.12.883,english_experiment2,2022.1.4,Win32,60.04924038,,,space,4.9751,0,18,18,1,1,target,0,penultimate,"No, MONDAY isn’t the discount day, but Friday is.",discount,2,,,,,,,,,,,,,,,,,,,,,,,
,,,,,,,,,,ala059,03/01/2023_07h20.12.883,english_experiment2,2022.1.4,Win32,60.04924038,,,,,,,,,,,,,,,,0,0,0,1,1,main_trial_block2.xlsx,,,,,,,,,,,,,,,,,
,,,,,,,,,,ala059,03/01/2023_07h20.12.883,english_experiment2,2022.1.4,Win32,60.04924038,,,space,5.3368,0,0,0,12,1,target,1,penultimate,"No, there weren't FIVE converts that year, but there were two.",convert,1,,,,,,,,,,,,,,,,,,,,,,,
,,,,,,,,,,ala059,03/01/2023_07h20.12.883,english_experiment2,2022.1.4,Win32,60.04924038,,,space,5.0678,0,1,1,3,1,target,0,ultimate,"No, THEY won’t import more cars, but the government will.",import,1,,,,,,,,,,,,,,,,,,,,,,,
,,,,,,,,,,ala059,03/01/2023_07h20.12.883,english_experiment2,2022.1.4,Win32,60.04924038,,,space,5.07,0,2,2,8,1,target,0,penultimate,"No, I didn’t SELL my trusty gps, but I broke it.",trusty,1,,,,,,,,,,,,,,,,,,,,,,,
,,,,,,,,,,ala059,03/01/2023_07h20.12.883,english_experiment2,2022.1.4,Win32,60.04924038,,,space,5.5513,0,3,3,2,1,target,0,penultimate,"No, he didn’t SHAME his forebear today, he honored him.",forebear,1,,,,,,,,,,,,,,,,,,,,,,,
,,,,,,,,,,ala059,03/01/2023_07h20.12.883,english_experiment2,2022.1.4,Win32,60.04924038,,,space,4.7969,0,4,4,11,1,target,1,ultimate,"No, WE won’t contract the disease, but you will.",contract,1,,,,,,,,,,,,,,,,,,,,,,,
,,,,,,,,,,ala059,03/01/2023_07h20.12.883,english_experiment2,2022.1.4,Win32,60.04924038,,,space,5.4971,0,5,5,15,1,target,1,ultimate,"No, the PARENTS can’t project their voices, but their son can.",project,1,,,,,,,,,,,,,,,,,,,,,,,
,,,,,,,,,,ala059,03/01/2023_07h20.12.883,english_experiment2,2022.1.4,Win32,60.04924038,,,space,5.3615,0,6,6,7,1,target,0,ultimate,"No, my PARENTS won’t relay my message, but my sister will.",relay,1,,,,,,,,,,,,,,,,,,,,,,,
,,,,,,,,,,ala059,03/01/2023_07h20.12.883,english_experiment2,2022.1.4,Win32,60.04924038,,,space,5.6559,0,7,7,4,1,target,0,penultimate,"No, THEY don’t want an impress of their hands, but the kids do.",impress,1,,,,,,,,,,,,,,,,,,,,,,,
,,,,,,,,,,ala059,03/01/2023_07h20.12.883,english_experiment2,2022.1.4,Win32,60.04924038,,,space,5.7898,0,8,8,13,1,target,1,ultimate,"No, the JUDGE will not convict him, but the jury will.",convict,1,,,,,,,,,,,,,,,,,,,,,,,
,,,,,,,,,,ala059,03/01/2023_07h20.12.883,english_experiment2,2022.1.4,Win32,60.04924038,,,space,6.2272,0,9,9,16,1,target,1,penultimate,"No, he didn’t LOOK at the object on the shelf, he stared at it.",object,1,,,,,,,,,,,,,,,,,,,,,,,
,,,,,,,,,,ala059,03/01/2023_07h20.12.883,english_experiment2,2022.1.4,Win32,60.04924038,,,space,5.5672,0,10,10,17,1,target,1,ultimate,"No, he doesn’t HATE to record his voice, he loves it.",record,1,,,,,,,,,,,,,,,,,,,,,,,
,,,,,,,,,,ala059,03/01/2023_07h20.12.883,english_experiment2,2022.1.4,Win32,60.04924038,,,space,6.4801,0,11,11,5,1,target,0,ultimate,"No, the LEADER doesn’t incite violence, but his advisors do.",insight,1,,,,,,,,,,,,,,,,,,,,,,,
,,,,,,,,,,ala059,03/01/2023_07h20.12.883,english_experiment2,2022.1.4,Win32,60.04924038,,,space,5.6842,0,12,12,0,1,target,0,penultimate,"No, the DRESS didn't billow in the wind, but the curtains did.",billow,1,,,,,,,,,,,,,,,,,,,,,,,
,,,,,,,,,,ala059,03/01/2023_07h20.12.883,english_experiment2,2022.1.4,Win32,60.04924038,,,space,5.4205,0,13,13,6,1,target,0,penultimate,"No, HER permit wasn't suspended, but mine was.",permit,1,,,,,,,,,,,,,,,,,,,,,,,
,,,,,,,,,,ala059,03/01/2023_07h20.12.883,english_experiment2,2022.1.4,Win32,60.04924038,,,space,6.1736,0,14,14,9,1,target,1,ultimate,"No, don't use a SPOON to combine the ingredients, use a beater.",combine,1,,,,,,,,,,,,,,,,,,,,,,,
,,,,,,,,,,ala059,03/01/2023_07h20.12.883,english_experiment2,2022.1.4,Win32,60.04924038,,,space,5.454,0,15,15,10,1,target,1,penultimate,"No, she doesn’t OWN the compact car, she leases it.",compact,1,,,,,,,,,,,,,,,,,,,,,,,
,,,,,,,,,,ala059,03/01/2023_07h20.12.883,english_experiment2,2022.1.4,Win32,60.04924038,,,space,5.099,0,16,16,1,1,target,0,ultimate,"No, THEY don’t discount his abilities, we do.",discount,1,,,,,,,,,,,,,,,,,,,,,,,
,,,,,,,,,,ala059,03/01/2023_07h20.12.883,english_experiment2,2022.1.4,Win32,60.04924038,,,space,5.3146,0,17,17,18,1,target,1,penultimate,"No, SHE wasn't the subject of the painting, but I was.",subject,1,,,,,,,,,,,,,,,,,,,,,,,
,,,,,,,,,,ala059,03/01/2023_07h20.12.883,english_experiment2,2022.1.4,Win32,60.04924038,,,space,5.8904,0,18,18,14,1,target,1,penultimate,"No, she doesn’t LOVE the desert landscape, she hates it.",desert,1,,,,,,,,,,,,,,,,,,,,,,,
,,,,,,,,,,ala059,03/01/2023_07h20.12.883,english_experiment2,2022.1.4,Win32,60.04924038,,,,,,,,,,,,,,,,0,1,1,0,1,main_trial_block1.xlsx,,,,,,,,,,,,,,,,,
,,,,,,,,,,ala059,03/01/2023_07h20.12.883,english_experiment2,2022.1.4,Win32,60.04924038,,,,,,,,,,,,,,,,,,,,,,space,9.9851,1,0,1,0,1,,,,,,,,,,
,,,,,,,,,,ala059,03/01/2023_07h20.12.883,english_experiment2,2022.1.4,Win32,60.04924038,,,space,5.2464,,,,,,target,1,ultimate,"No, the PARENTS can’t project their voices, but their son can.",project,1,,,,,,,,,,,,,,0,0,0,15,1,,,,,
,,,,,,,,,,ala059,03/01/2023_07h20.12.883,english_experiment2,2022.1.4,Win32,60.04924038,,,space,5.4924,,,,,,target,0,ultimate,"No, THEY don’t discount his abilities, we do.",discount,1,,,,,,,,,,,,,,0,1,1,1,1,,,,,
,,,,,,,,,,ala059,03/01/2023_07h20.12.883,english_experiment2,2022.1.4,Win32,60.04924038,,,space,5.6137,,,,,,target,1,penultimate,"No, she doesn’t OWN the compact car, she leases it.",compact,1,,,,,,,,,,,,,,0,2,2,10,1,,,,,
,,,,,,,,,,ala059,03/01/2023_07h20.12.883,english_experiment2,2022.1.4,Win32,60.04924038,,,space,4.7338,,,,,,target,1,penultimate,"No, SHE wasn't the subject of the painting, but I was.",subject,1,,,,,,,,,,,,,,0,3,3,18,1,,,,,
,,,,,,,,,,ala059,03/01/2023_07h20.12.883,english_experiment2,2022.1.4,Win32,60.04924038,,,space,4.7958,,,,,,target,0,penultimate,"No, HER permit wasn't suspended, but mine was.",permit,1,,,,,,,,,,,,,,0,4,4,6,1,,,,,
,,,,,,,,,,ala059,03/01/2023_07h20.12.883,english_experiment2,2022.1.4,Win32,60.04924038,,,space,5.4313,,,,,,target,1,penultimate,"No, she doesn’t LOVE the desert landscape, she hates it.",desert,1,,,,,,,,,,,,,,0,5,5,14,1,,,,,
,,,,,,,,,,ala059,03/01/2023_07h20.12.883,english_experiment2,2022.1.4,Win32,60.04924038,,,space,5.5074,,,,,,target,0,penultimate,"No, the DRESS didn't billow in the wind, but the curtains did.",billow,1,,,,,,,,,,,,,,0,6,6,0,1,,,,,
,,,,,,,,,,ala059,03/01/2023_07h20.12.883,english_experiment2,2022.1.4,Win32,60.04924038,,,space,5.7778,,,,,,target,1,ultimate,"No, don't use a SPOON to combine the ingredients, use a beater.",combine,1,,,,,,,,,,,,,,0,7,7,9,1,,,,,
,,,,,,,,,,ala059,03/01/2023_07h20.12.883,english_experiment2,2022.1.4,Win32,60.04924038,,,space,5.8965,,,,,,target,1,penultimate,"No, he didn’t LOOK at the object on the shelf, he stared at it.",object,1,,,,,,,,,,,,,,0,8,8,16,1,,,,,
,,,,,,,,,,ala059,03/01/2023_07h20.12.883,english_experiment2,2022.1.4,Win32,60.04924038,,,space,5.7834,,,,,,target,0,penultimate,"No, I didn’t SELL my trusty gps, but I broke it.",trusty,1,,,,,,,,,,,,,,0,9,9,8,1,,,,,
,,,,,,,,,,ala059,03/01/2023_07h20.12.883,english_experiment2,2022.1.4,Win32,60.04924038,,,space,5.7967,,,,,,target,0,ultimate,"No, my PARENTS won’t relay my message, but my sister will.",relay,1,,,,,,,,,,,,,,0,10,10,7,1,,,,,
,,,,,,,,,,ala059,03/01/2023_07h20.12.883,english_experiment2,2022.1.4,Win32,60.04924038,,,space,5.3869,,,,,,target,0,penultimate,"No, THEY don’t want an impress of their hands, but the kids do.",impress,1,,,,,,,,,,,,,,0,11,11,4,1,,,,,
,,,,,,,,,,ala059,03/01/2023_07h20.12.883,english_experiment2,2022.1.4,Win32,60.04924038,,,space,5.967,,,,,,target,1,penultimate,"No, there weren't FIVE converts that year, but there were two.",convert,1,,,,,,,,,,,,,,0,12,12,12,1,,,,,
,,,,,,,,,,ala059,03/01/2023_07h20.12.883,english_experiment2,2022.1.4,Win32,60.04924038,,,space,5.1171,,,,,,target,1,ultimate,"No, he doesn’t HATE to record his voice, he loves it.",record,1,,,,,,,,,,,,,,0,13,13,17,1,,,,,
,,,,,,,,,,ala059,03/01/2023_07h20.12.883,english_experiment2,2022.1.4,Win32,60.04924038,,,space,5.019,,,,,,target,1,ultimate,"No, WE won’t contract the disease, but you will.",contract,1,,,,,,,,,,,,,,0,14,14,11,1,,,,,
,,,,,,,,,,ala059,03/01/2023_07h20.12.883,english_experiment2,2022.1.4,Win32,60.04924038,,,space,5.4111,,,,,,target,1,ultimate,"No, the JUDGE will not convict him, but the jury will.",convict,1,,,,,,,,,,,,,,0,15,15,13,1,,,,,
,,,,,,,,,,ala059,03/01/2023_07h20.12.883,english_experiment2,2022.1.4,Win32,60.04924038,,,space,6.4091,,,,,,target,0,ultimate,"No, THEY won’t import more cars, but the government will.",import,1,,,,,,,,,,,,,,0,16,16,3,1,,,,,
,,,,,,,,,,ala059,03/01/2023_07h20.12.883,english_experiment2,2022.1.4,Win32,60.04924038,,,space,6.1797,,,,,,target,0,penultimate,"No, he didn’t SHAME his forebear today, he honored him.",forebear,1,,,,,,,,,,,,,,0,17,17,2,1,,,,,
,,,,,,,,,,ala059,03/01/2023_07h20.12.883,english_experiment2,2022.1.4,Win32,60.04924038,,,space,6.0015,,,,,,target,0,ultimate,"No, the LEADER doesn’t incite violence, but his advisors do.",insight,1,,,,,,,,,,,,,,0,18,18,5,1,,,,,
,,,,,,,,,,ala059,03/01/2023_07h20.12.883,english_experiment2,2022.1.4,Win32,60.04924038,,,,,,,,,,,,,,,,,,,,,main_trial_block1.xlsx,,,,,,,,,,,,,0,0,0,0,1
,,,,,,,,,,ala059,03/01/2023_07h20.12.883,english_experiment2,2022.1.4,Win32,60.04924038,,,space,5.6528,,,,,,target,1,penultimate,"No, he didn’t CATCH the convict yesterday, but he saw him.",convict,2,,,,,,,,,,,,,,0,0,0,13,1,,,,,
,,,,,,,,,,ala059,03/01/2023_07h20.12.883,english_experiment2,2022.1.4,Win32,60.04924038,,,space,5.9415,,,,,,target,1,ultimate,"No, THEY will not object to our methods, but he will.",object,2,,,,,,,,,,,,,,0,1,1,16,1,,,,,
,,,,,,,,,,ala059,03/01/2023_07h20.12.883,english_experiment2,2022.1.4,Win32,60.04924038,,,space,6.1027,,,,,,target,1,ultimate,"No, the FATHER won’t desert the army, but his son will.",desert,2,,,,,,,,,,,,,,0,2,2,14,1,,,,,
,,,,,,,,,,ala059,03/01/2023_07h20.12.883,english_experiment2,2022.1.4,Win32,60.04924038,,,space,6.1435,,,,,,target,0,ultimate,"No, the PARENTS won’t forbear the mortgage, but the bank will.",forebear,2,,,,,,,,,,,,,,0,3,3,2,1,,,,,
,,,,,,,,,,ala059,03/01/2023_07h20.12.883,english_experiment2,2022.1.4,Win32,60.04924038,,,space,5.933,,,,,,target,1,ultimate,"No, they don’t use MICROSOFT to convert files; they use Adobe.",convert,2,,,,,,,,,,,,,,0,4,4,12,1,,,,,
,,,,,,,,,,ala059,03/01/2023_07h20.12.883,english_experiment2,2022.1.4,Win32,60.04924038,,,space,6.2004,,,,,,target,1,penultimate,"No, they didn’t BUY the record in the shop, but they listened to it.",record,2,,,,,,,,,,,,,,0,5,5,17,1,,,,,
,,,,,,,,,,ala059,03/01/2023_07h20.12.883,english_experiment2,2022.1.4,Win32,60.04924038,,,space,6.3877,,,,,,target,0,penultimate,"No, the DRINKS weren’t of great import to him, but the dinner was.",import,2,,,,,,,,,,,,,,0,6,6,3,1,,,,,
,,,,,,,,,,ala059,03/01/2023_07h20.12.883,english_experiment2,2022.1.4,Win32,60.04924038,,,space,6.7342,,,,,,target,1,ultimate,"No, she didn't use her FINGER to compact the soil, but she used her hand.",compact,2,,,,,,,,,,,,,,0,7,7,10,1,,,,,
,,,,,,,,,,ala059,03/01/2023_07h20.12.883,english_experiment2,2022.1.4,Win32,60.04924038,,,space,5.4192,,,,,,target,1,ultimate,"No, THEY won't subject you to questioning, but I will.",subject,2,,,,,,,,,,,,,,0,8,8,18,1,,,,,
,,,,,,,,,,ala059,03/01/2023_07h20.12.883,english_experiment2,2022.1.4,Win32,60.04924038,,,space,5.6702,,,,,,target,0,ultimate,"No, his SINGING doesn’t impress us, but his cooking does.",impress,2,,,,,,,,,,,,,,0,9,9,4,1,,,,,
,,,,,,,,,,ala059,03/01/2023_07h20.12.883,english_experiment2,2022.1.4,Win32,60.04924038,,,space,5.219,,,,,,target,1,penultimate,"No, HE didn’t sign the contract today, but she did.",contract,2,,,,,,,,,,,,,,0,10,10,11,1,,,,,
,,,,,,,,,,ala059,03/01/2023_07h20.12.883,english_experiment2,2022.1.4,Win32,60.04924038,,,space,5.554,,,,,,target,0,ultimate,"No, her FATHER won’t permit her to go, but her mother will.",permit,2,,,,,,,,,,,,,,0,11,11,6,1,,,,,
,,,,,,,,,,ala059,03/01/2023_07h20.12.883,english_experiment2,2022.1.4,Win32,60.04924038,,,space,6.2907,,,,,,target,0,penultimate,"No, I didn't want YOUR insight on the project, but his.",insight,2,,,,,,,,,,,,,,0,12,12,5,1,,,,,
,,,,,,,,,,ala059,03/01/2023_07h20.12.883,english_experiment2,2022.1.4,Win32,60.04924038,,,space,6.5266,,,,,,target,0,ultimate,"No, her CALCIUM isn’t below normal, but her iron is.",billow,2,,,,,,,,,,,,,,0,13,13,0,1,,,,,
,,,,,,,,,,ala059,03/01/2023_07h20.12.883,english_experiment2,2022.1.4,Win32,60.04924038,,,space,5.5778,,,,,,target,0,ultimate,"No, my MOTHER wasn’t a trustee of the company, but my sister was.",trusty,2,,,,,,,,,,,,,,0,14,14,8,1,,,,,
,,,,,,,,,,ala059,03/01/2023_07h20.12.883,english_experiment2,2022.1.4,Win32,60.04924038,,,space,6.1555,,,,,,target,1,penultimate,"No, the SCIENCE project isn’t due tomorrow, but the math project is.",project,2,,,,,,,,,,,,,,0,15,15,15,1,,,,,
,,,,,,,,,,ala059,03/01/2023_07h20.12.883,english_experiment2,2022.1.4,Win32,60.04924038,,,space,5.1028,,,,,,target,0,penultimate,"No, MONDAY isn’t the discount day, but Friday is.",discount,2,,,,,,,,,,,,,,0,16,16,1,1,,,,,
,,,,,,,,,,ala059,03/01/2023_07h20.12.883,english_experiment2,2022.1.4,Win32,60.04924038,,,space,4.9044,,,,,,target,0,penultimate,"No, I didn't RUN in the relay, but I walked.",relay,2,,,,,,,,,,,,,,0,17,17,7,1,,,,,
,,,,,,,,,,ala059,03/01/2023_07h20.12.883,english_experiment2,2022.1.4,Win32,60.04924038,,,space,6.5856,,,,,,target,1,penultimate,"No, there wasn’t a SPIDER on the combine windshield, but there was a fly.",combine,2,,,,,,,,,,,,,,0,18,18,9,1,,,,,
,,,,,,,,,,ala059,03/01/2023_07h20.12.883,english_experiment2,2022.1.4,Win32,60.04924038,,,,,,,,,,,,,,,,,,,,,main_trial_block2.xlsx,,,,,,,,,,,,,0,1,1,1,1
