key_resp.keys,key_resp.rt,key_resp_2.keys,key_resp_2.rt,trials_2.thisRepN,trials_2.thisTrialN,trials_2.thisN,trials_2.thisIndex,trials_2.ran,trialspanish,participant ID,date,expName,psychopyVersion,OS,frameRate,key_resp_3.keys,key_resp_3.rt,key_resp_4.keys,key_resp_4.rt,trials_randomizer.thisRepN,trials_randomizer.thisTrialN,trials_randomizer.thisN,trials_randomizer.thisIndex,trials_randomizer.ran,fillertarget,stress,wordspanish,verbspanish,rand_12,block_randomizer.thisRepN,block_randomizer.thisTrialN,block_randomizer.thisN,block_randomizer.thisIndex,block_randomizer.ran,condsFile,key_resp_5.keys,key_resp_5.rt,mainTrialReps.thisRepN,mainTrialReps.thisTrialN,mainTrialReps.thisN,mainTrialReps.thisIndex,mainTrialReps.ran,trials_randomizer2.thisRepN,trials_randomizer2.thisTrialN,trials_randomizer2.thisN,trials_randomizer2.thisIndex,trials_randomizer2.ran,block_randomizer2.thisRepN,block_randomizer2.thisTrialN,block_randomizer2.thisN,block_randomizer2.thisIndex,block_randomizer2.ran
space,1469.436,space,5.5946,0,0,0,2,1,"""Me gustaría un café"" —pienso complacido.",ala054,03-12-2023_16h54.30.488,spanish_exp2,2022.1.4,Win32,60.30999337,,,,,,,,,,,,,,,,,,,,,,,,,,,,,,,,,,,,,
,,space,4.8914,0,1,1,1,1,"""Depende del clima"" —respondió claramente.",ala054,03-12-2023_16h54.30.488,spanish_exp2,2022.1.4,Win32,60.30999337,,,,,,,,,,,,,,,,,,,,,,,,,,,,,,,,,,,,,
,,space,6.3006,0,2,2,0,1,"""Le regaló una camiseta a su sobrino"" —digo contento.",ala054,03-12-2023_16h54.30.488,spanish_exp2,2022.1.4,Win32,60.30999337,,,,,,,,,,,,,,,,,,,,,,,,,,,,,,,,,,,,,
,,space,4.9929,0,3,3,3,1,"""Te quiero mucho"" —suspiró contenta Teresa.",ala054,03-12-2023_16h54.30.488,spanish_exp2,2022.1.4,Win32,60.30999337,,,,,,,,,,,,,,,,,,,,,,,,,,,,,,,,,,,,,
,,,,,,,,,,ala054,03-12-2023_16h54.30.488,spanish_exp2,2022.1.4,Win32,60.30999337,space,0.6872,space,5.0165,0,0,0,6,1,target,ultimate,"""Lee estos artículos"" —le encaminó con ilusión.",encaminar,2,,,,,,,,,,,,,,,,,,,,,,,
,,,,,,,,,,ala054,03-12-2023_16h54.30.488,spanish_exp2,2022.1.4,Win32,60.30999337,,,space,4.9806,0,1,1,4,1,target,ultimate,"""Desarrollen esta ecuación"" —los examinó seriamente.",examinar,2,,,,,,,,,,,,,,,,,,,,,,,
,,,,,,,,,,ala054,03-12-2023_16h54.30.488,spanish_exp2,2022.1.4,Win32,60.30999337,,,space,5.8443,0,2,2,5,1,target,penultimate,"""Estas son las luces nuevas"" —ilumino contenta.",iluminar,2,,,,,,,,,,,,,,,,,,,,,,,
,,,,,,,,,,ala054,03-12-2023_16h54.30.488,spanish_exp2,2022.1.4,Win32,60.30999337,,,space,5.6173,0,3,3,8,1,target,ultimate,"""Este es más fuerte"" —discriminó tímida.",discriminar,2,,,,,,,,,,,,,,,,,,,,,,,
,,,,,,,,,,ala054,03-12-2023_16h54.30.488,spanish_exp2,2022.1.4,Win32,60.30999337,,,space,6.4502,0,4,4,2,1,target,ultimate,"""Este es el camino más corto"" —la descaminó complacido.",descaminar,2,,,,,,,,,,,,,,,,,,,,,,,
,,,,,,,,,,ala054,03-12-2023_16h54.30.488,spanish_exp2,2022.1.4,Win32,60.30999337,,,space,5.707,0,5,5,1,1,target,penultimate,"""La masa del átomo es medible"" —determino complacida.",determinar,2,,,,,,,,,,,,,,,,,,,,,,,
,,,,,,,,,,ala054,03-12-2023_16h54.30.488,spanish_exp2,2022.1.4,Win32,60.30999337,,,space,5.9341,0,6,6,7,1,target,penultimate,"""No me gusta su conducta"" —les recrimino con intensidad.",recriminar,2,,,,,,,,,,,,,,,,,,,,,,,
,,,,,,,,,,ala054,03-12-2023_16h54.30.488,spanish_exp2,2022.1.4,Win32,60.30999337,,,space,6.3045,0,7,7,12,1,target,ultimate,"""Este insecticida es muy eficaz"" —exterminó complacida.",exterminar,2,,,,,,,,,,,,,,,,,,,,,,,
,,,,,,,,,,ala054,03-12-2023_16h54.30.488,spanish_exp2,2022.1.4,Win32,60.30999337,,,space,14.8489,0,8,8,11,1,target,penultimate,"""Los Osvald, culpables"" —les incrimino seguro.",incriminar,2,,,,,,,,,,,,,,,,,,,,,,,
,,,,,,,,,,ala054,03-12-2023_16h54.30.488,spanish_exp2,2022.1.4,Win32,60.30999337,,,space,8.643,0,9,9,9,1,target,penultimate,"""No puedo estudiar matemáticas"" —me desanimo compungida.",desanimar,2,,,,,,,,,,,,,,,,,,,,,,,
,,,,,,,,,,ala054,03-12-2023_16h54.30.488,spanish_exp2,2022.1.4,Win32,60.30999337,,,space,6.8199,0,10,10,3,1,target,penultimate,"""La directora Pérez renuncia a su cargo"" —disemino compungido.",diseminar,2,,,,,,,,,,,,,,,,,,,,,,,
,,,,,,,,,,ala054,03-12-2023_16h54.30.488,spanish_exp2,2022.1.4,Win32,60.30999337,,,space,5.4373,0,11,11,13,1,target,penultimate,"""Se llamará beta"" —lo denomino complacido.",denominar,2,,,,,,,,,,,,,,,,,,,,,,,
,,,,,,,,,,ala054,03-12-2023_16h54.30.488,spanish_exp2,2022.1.4,Win32,60.30999337,,,space,4.77,0,12,12,10,1,target,ultimate,"""Tarjeta roja"" —los eliminó segura.",eliminar,2,,,,,,,,,,,,,,,,,,,,,,,
,,,,,,,,,,ala054,03-12-2023_16h54.30.488,spanish_exp2,2022.1.4,Win32,60.30999337,,,space,5.5488,0,13,13,0,1,target,ultimate,"""No me gustan las corridas"" —abominó con certeza.",abominar,2,,,,,,,,,,,,,,,,,,,,,,,
,,,,,,,,,,ala054,03-12-2023_16h54.30.488,spanish_exp2,2022.1.4,Win32,60.30999337,,,,,,,,,,,,,,,0,0,0,1,1,main_trial_block2.xlsx,,,,,,,,,,,,,,,,,
,,,,,,,,,,ala054,03-12-2023_16h54.30.488,spanish_exp2,2022.1.4,Win32,60.30999337,,,space,6.3354,0,0,0,6,1,target,penultimate,"""Confirma la cita para mañana"" —le encamino con ilusión. ",encaminar,1,,,,,,,,,,,,,,,,,,,,,,,
,,,,,,,,,,ala054,03-12-2023_16h54.30.488,spanish_exp2,2022.1.4,Win32,60.30999337,,,space,5.6053,0,1,1,12,1,target,penultimate,"""No habrá más cucarachas"" —extermino complacida.",exterminar,1,,,,,,,,,,,,,,,,,,,,,,,
,,,,,,,,,,ala054,03-12-2023_16h54.30.488,spanish_exp2,2022.1.4,Win32,60.30999337,,,space,5.0937,0,2,2,10,1,target,penultimate,"""No son necesarios"" —los elimino segura.",eliminar,1,,,,,,,,,,,,,,,,,,,,,,,
,,,,,,,,,,ala054,03-12-2023_16h54.30.488,spanish_exp2,2022.1.4,Win32,60.30999337,,,space,5.07,0,3,3,7,1,target,ultimate,"""Me robaron"" —les recriminó con intensidad.",recriminar,1,,,,,,,,,,,,,,,,,,,,,,,
,,,,,,,,,,ala054,03-12-2023_16h54.30.488,spanish_exp2,2022.1.4,Win32,60.30999337,,,space,6.7434,0,4,4,2,1,target,penultimate,"""Este no es mi número de teléfono"" —la descamino complacido.",descaminar,1,,,,,,,,,,,,,,,,,,,,,,,
,,,,,,,,,,ala054,03-12-2023_16h54.30.488,spanish_exp2,2022.1.4,Win32,60.30999337,,,space,5.347,0,5,5,8,1,target,penultimate,"""Este tiene menos azúcar"" —discrimino tímida.",discriminar,1,,,,,,,,,,,,,,,,,,,,,,,
,,,,,,,,,,ala054,03-12-2023_16h54.30.488,spanish_exp2,2022.1.4,Win32,60.30999337,,,space,7.5068,0,6,6,3,1,target,ultimate,"""El presidente del estado se encuentra enfermo"" —diseminó compungido.",diseminar,1,,,,,,,,,,,,,,,,,,,,,,,
,,,,,,,,,,ala054,03-12-2023_16h54.30.488,spanish_exp2,2022.1.4,Win32,60.30999337,,,space,5.4224,0,7,7,11,1,target,ultimate,"""Entraron sin pedir permiso"" —les incriminó seguro.",incriminar,1,,,,,,,,,,,,,,,,,,,,,,,
,,,,,,,,,,ala054,03-12-2023_16h54.30.488,spanish_exp2,2022.1.4,Win32,60.30999337,,,space,5.7378,0,8,8,0,1,target,penultimate,"""No me gusta el té de manzanilla"" —abomino con certeza.",abominar,1,,,,,,,,,,,,,,,,,,,,,,,
,,,,,,,,,,ala054,03-12-2023_16h54.30.488,spanish_exp2,2022.1.4,Win32,60.30999337,,,space,6.5144,0,9,9,1,1,target,ultimate,"""Con la lluvia el viento es muy fuerte"" —determinó complacida.",determinar,1,,,,,,,,,,,,,,,,,,,,,,,
,,,,,,,,,,ala054,03-12-2023_16h54.30.488,spanish_exp2,2022.1.4,Win32,60.30999337,,,space,5.7458,0,10,10,5,1,target,ultimate,"""Compré esta lámpara ayer"" —iluminó contenta.",iluminar,1,,,,,,,,,,,,,,,,,,,,,,,
,,,,,,,,,,ala054,03-12-2023_16h54.30.488,spanish_exp2,2022.1.4,Win32,60.30999337,,,space,6.2491,0,11,11,9,1,target,ultimate,"""No puedo cocinar sin quemar la comida"" —me desanimó compungida.",desanimar,1,,,,,,,,,,,,,,,,,,,,,,,
,,,,,,,,,,ala054,03-12-2023_16h54.30.488,spanish_exp2,2022.1.4,Win32,60.30999337,,,space,6.3987,0,12,12,13,1,target,ultimate,"""Retrato de un hombre triste"" —lo denominó complacido. ",denominar,1,,,,,,,,,,,,,,,,,,,,,,,
,,,,,,,,,,ala054,03-12-2023_16h54.30.488,spanish_exp2,2022.1.4,Win32,60.30999337,,,space,5.412,0,13,13,4,1,target,penultimate,"""Escriban la respuesta"" —los examino seriamente.",examinar,1,,,,,,,,,,,,,,,,,,,,,,,
,,,,,,,,,,ala054,03-12-2023_16h54.30.488,spanish_exp2,2022.1.4,Win32,60.30999337,,,,,,,,,,,,,,,0,1,1,0,1,main_trial_block1.xlsx,,,,,,,,,,,,,,,,,
,,,,,,,,,,ala054,03-12-2023_16h54.30.488,spanish_exp2,2022.1.4,Win32,60.30999337,,,,,,,,,,,,,,,,,,,,,space,6.2117,0,0,0,0,1,,,,,,,,,,
,,,,,,,,,,ala054,03-12-2023_16h54.30.488,spanish_exp2,2022.1.4,Win32,60.30999337,,,space,6.6067,0,0,0,3,1,target,ultimate,"""El presidente del estado se encuentra enfermo"" —diseminó compungido.",diseminar,1,,,,,,,,,,,,,,,,,,,,,,,
,,,,,,,,,,ala054,03-12-2023_16h54.30.488,spanish_exp2,2022.1.4,Win32,60.30999337,,,space,5.3552,0,1,1,2,1,target,penultimate,"""Este no es mi número de teléfono"" —la descamino complacido.",descaminar,1,,,,,,,,,,,,,,,,,,,,,,,
,,,,,,,,,,ala054,03-12-2023_16h54.30.488,spanish_exp2,2022.1.4,Win32,60.30999337,,,space,5.0224,0,2,2,7,1,target,ultimate,"""Me robaron"" —les recriminó con intensidad.",recriminar,1,,,,,,,,,,,,,,,,,,,,,,,
,,,,,,,,,,ala054,03-12-2023_16h54.30.488,spanish_exp2,2022.1.4,Win32,60.30999337,,,space,5.4284,0,3,3,6,1,target,penultimate,"""Confirma la cita para mañana"" —le encamino con ilusión. ",encaminar,1,,,,,,,,,,,,,,,,,,,,,,,
,,,,,,,,,,ala054,03-12-2023_16h54.30.488,spanish_exp2,2022.1.4,Win32,60.30999337,,,space,5.1106,0,4,4,4,1,target,penultimate,"""Escriban la respuesta"" —los examino seriamente.",examinar,1,,,,,,,,,,,,,,,,,,,,,,,
,,,,,,,,,,ala054,03-12-2023_16h54.30.488,spanish_exp2,2022.1.4,Win32,60.30999337,,,space,5.7931,0,5,5,1,1,target,ultimate,"""Con la lluvia el viento es muy fuerte"" —determinó complacida.",determinar,1,,,,,,,,,,,,,,,,,,,,,,,
,,,,,,,,,,ala054,03-12-2023_16h54.30.488,spanish_exp2,2022.1.4,Win32,60.30999337,,,space,5.9376,0,6,6,0,1,target,penultimate,"""No me gusta el té de manzanilla"" —abomino con certeza.",abominar,1,,,,,,,,,,,,,,,,,,,,,,,
,,,,,,,,,,ala054,03-12-2023_16h54.30.488,spanish_exp2,2022.1.4,Win32,60.30999337,,,space,5.3733,0,7,7,5,1,target,ultimate,"""Compré esta lámpara ayer"" —iluminó contenta.",iluminar,1,,,,,,,,,,,,,,,,,,,,,,,
,,,,,,,,,,ala054,03-12-2023_16h54.30.488,spanish_exp2,2022.1.4,Win32,60.30999337,,,space,5.3448,0,8,8,13,1,target,ultimate,"""Retrato de un hombre triste"" —lo denominó complacido. ",denominar,1,,,,,,,,,,,,,,,,,,,,,,,
,,,,,,,,,,ala054,03-12-2023_16h54.30.488,spanish_exp2,2022.1.4,Win32,60.30999337,,,space,5.5687,0,9,9,8,1,target,penultimate,"""Este tiene menos azúcar"" —discrimino tímida.",discriminar,1,,,,,,,,,,,,,,,,,,,,,,,
,,,,,,,,,,ala054,03-12-2023_16h54.30.488,spanish_exp2,2022.1.4,Win32,60.30999337,,,space,5.6143,0,10,10,10,1,target,penultimate,"""No son necesarios"" —los elimino segura.",eliminar,1,,,,,,,,,,,,,,,,,,,,,,,
,,,,,,,,,,ala054,03-12-2023_16h54.30.488,spanish_exp2,2022.1.4,Win32,60.30999337,,,space,5.2325,0,11,11,11,1,target,ultimate,"""Entraron sin pedir permiso"" —les incriminó seguro.",incriminar,1,,,,,,,,,,,,,,,,,,,,,,,
,,,,,,,,,,ala054,03-12-2023_16h54.30.488,spanish_exp2,2022.1.4,Win32,60.30999337,,,space,6.8349,0,12,12,9,1,target,ultimate,"""No puedo cocinar sin quemar la comida"" —me desanimó compungida.",desanimar,1,,,,,,,,,,,,,,,,,,,,,,,
,,,,,,,,,,ala054,03-12-2023_16h54.30.488,spanish_exp2,2022.1.4,Win32,60.30999337,,,space,5.8354,0,13,13,12,1,target,penultimate,"""No habrá más cucarachas"" —extermino complacida.",exterminar,1,,,,,,,,,,,,,,,,,,,,,,,
,,,,,,,,,,ala054,03-12-2023_16h54.30.488,spanish_exp2,2022.1.4,Win32,60.30999337,,,,,,,,,,,,,,,0,0,0,0,1,main_trial_block1.xlsx,,,,,,,,,,,,,,,,,
,,,,,,,,,,ala054,03-12-2023_16h54.30.488,spanish_exp2,2022.1.4,Win32,60.30999337,,,space,6.9807,0,0,0,9,1,target,penultimate,"""No puedo estudiar matemáticas"" —me desanimo compungida.",desanimar,2,,,,,,,,,,,,,,,,,,,,,,,
,,,,,,,,,,ala054,03-12-2023_16h54.30.488,spanish_exp2,2022.1.4,Win32,60.30999337,,,space,4.9975,0,1,1,0,1,target,ultimate,"""No me gustan las corridas"" —abominó con certeza.",abominar,2,,,,,,,,,,,,,,,,,,,,,,,
,,,,,,,,,,ala054,03-12-2023_16h54.30.488,spanish_exp2,2022.1.4,Win32,60.30999337,,,space,6.0772,0,2,2,6,1,target,ultimate,"""Lee estos artículos"" —le encaminó con ilusión.",encaminar,2,,,,,,,,,,,,,,,,,,,,,,,
,,,,,,,,,,ala054,03-12-2023_16h54.30.488,spanish_exp2,2022.1.4,Win32,60.30999337,,,space,4.8116,0,3,3,8,1,target,ultimate,"""Este es más fuerte"" —discriminó tímida.",discriminar,2,,,,,,,,,,,,,,,,,,,,,,,
,,,,,,,,,,ala054,03-12-2023_16h54.30.488,spanish_exp2,2022.1.4,Win32,60.30999337,,,space,5.1802,0,4,4,13,1,target,penultimate,"""Se llamará beta"" —lo denomino complacido.",denominar,2,,,,,,,,,,,,,,,,,,,,,,,
,,,,,,,,,,ala054,03-12-2023_16h54.30.488,spanish_exp2,2022.1.4,Win32,60.30999337,,,space,6.5621,0,5,5,11,1,target,penultimate,"""Los Osvald, culpables"" —les incrimino seguro.",incriminar,2,,,,,,,,,,,,,,,,,,,,,,,
,,,,,,,,,,ala054,03-12-2023_16h54.30.488,spanish_exp2,2022.1.4,Win32,60.30999337,,,space,6.2485,0,6,6,12,1,target,ultimate,"""Este insecticida es muy eficaz"" —exterminó complacida.",exterminar,2,,,,,,,,,,,,,,,,,,,,,,,
,,,,,,,,,,ala054,03-12-2023_16h54.30.488,spanish_exp2,2022.1.4,Win32,60.30999337,,,space,6.644,0,7,7,1,1,target,penultimate,"""La masa del átomo es medible"" —determino complacida.",determinar,2,,,,,,,,,,,,,,,,,,,,,,,
,,,,,,,,,,ala054,03-12-2023_16h54.30.488,spanish_exp2,2022.1.4,Win32,60.30999337,,,space,4.4112,0,8,8,10,1,target,ultimate,"""Tarjeta roja"" —los eliminó segura.",eliminar,2,,,,,,,,,,,,,,,,,,,,,,,
,,,,,,,,,,ala054,03-12-2023_16h54.30.488,spanish_exp2,2022.1.4,Win32,60.30999337,,,space,5.102,0,9,9,4,1,target,ultimate,"""Desarrollen esta ecuación"" —los examinó seriamente.",examinar,2,,,,,,,,,,,,,,,,,,,,,,,
,,,,,,,,,,ala054,03-12-2023_16h54.30.488,spanish_exp2,2022.1.4,Win32,60.30999337,,,space,7.0839,0,10,10,7,1,target,penultimate,"""No me gusta su conducta"" —les recrimino con intensidad.",recriminar,2,,,,,,,,,,,,,,,,,,,,,,,
,,,,,,,,,,ala054,03-12-2023_16h54.30.488,spanish_exp2,2022.1.4,Win32,60.30999337,,,space,5.4406,0,11,11,5,1,target,penultimate,"""Estas son las luces nuevas"" —ilumino contenta.",iluminar,2,,,,,,,,,,,,,,,,,,,,,,,
,,,,,,,,,,ala054,03-12-2023_16h54.30.488,spanish_exp2,2022.1.4,Win32,60.30999337,,,space,6.0888,0,12,12,2,1,target,ultimate,"""Este es el camino más corto"" —la descaminó complacido.",descaminar,2,,,,,,,,,,,,,,,,,,,,,,,
,,,,,,,,,,ala054,03-12-2023_16h54.30.488,spanish_exp2,2022.1.4,Win32,60.30999337,,,space,6.7407,0,13,13,3,1,target,penultimate,"""La directora Pérez renuncia a su cargo"" —disemino compungido.",diseminar,2,,,,,,,,,,,,,,,,,,,,,,,
,,,,,,,,,,ala054,03-12-2023_16h54.30.488,spanish_exp2,2022.1.4,Win32,60.30999337,,,,,,,,,,,,,,,0,1,1,1,1,main_trial_block2.xlsx,,,,,,,,,,,,,,,,,
,,,,,,,,,,ala054,03-12-2023_16h54.30.488,spanish_exp2,2022.1.4,Win32,60.30999337,,,,,,,,,,,,,,,,,,,,,space,111.1275,1,0,1,0,1,,,,,,,,,,
,,,,,,,,,,ala054,03-12-2023_16h54.30.488,spanish_exp2,2022.1.4,Win32,60.30999337,,,space,5.0107,,,,,,target,ultimate,"""Me robaron"" —les recriminó con intensidad.",recriminar,1,,,,,,,,,,,,,,0,0,0,7,1,,,,,
,,,,,,,,,,ala054,03-12-2023_16h54.30.488,spanish_exp2,2022.1.4,Win32,60.30999337,,,space,4.9838,,,,,,target,penultimate,"""Este tiene menos azúcar"" —discrimino tímida.",discriminar,1,,,,,,,,,,,,,,0,1,1,8,1,,,,,
,,,,,,,,,,ala054,03-12-2023_16h54.30.488,spanish_exp2,2022.1.4,Win32,60.30999337,,,space,5.9572,,,,,,target,ultimate,"""Entraron sin pedir permiso"" —les incriminó seguro.",incriminar,1,,,,,,,,,,,,,,0,2,2,11,1,,,,,
,,,,,,,,,,ala054,03-12-2023_16h54.30.488,spanish_exp2,2022.1.4,Win32,60.30999337,,,space,4.4112,,,,,,target,penultimate,"""No son necesarios"" —los elimino segura.",eliminar,1,,,,,,,,,,,,,,0,3,3,10,1,,,,,
,,,,,,,,,,ala054,03-12-2023_16h54.30.488,spanish_exp2,2022.1.4,Win32,60.30999337,,,space,5.471,,,,,,target,ultimate,"""Retrato de un hombre triste"" —lo denominó complacido. ",denominar,1,,,,,,,,,,,,,,0,4,4,13,1,,,,,
,,,,,,,,,,ala054,03-12-2023_16h54.30.488,spanish_exp2,2022.1.4,Win32,60.30999337,,,space,5.4621,,,,,,target,penultimate,"""Este no es mi número de teléfono"" —la descamino complacido.",descaminar,1,,,,,,,,,,,,,,0,5,5,2,1,,,,,
,,,,,,,,,,ala054,03-12-2023_16h54.30.488,spanish_exp2,2022.1.4,Win32,60.30999337,,,space,6.5437,,,,,,target,ultimate,"""El presidente del estado se encuentra enfermo"" —diseminó compungido.",diseminar,1,,,,,,,,,,,,,,0,6,6,3,1,,,,,
,,,,,,,,,,ala054,03-12-2023_16h54.30.488,spanish_exp2,2022.1.4,Win32,60.30999337,,,space,5.8987,,,,,,target,penultimate,"""No habrá más cucarachas"" —extermino complacida.",exterminar,1,,,,,,,,,,,,,,0,7,7,12,1,,,,,
,,,,,,,,,,ala054,03-12-2023_16h54.30.488,spanish_exp2,2022.1.4,Win32,60.30999337,,,space,5.8217,,,,,,target,ultimate,"""No puedo cocinar sin quemar la comida"" —me desanimó compungida.",desanimar,1,,,,,,,,,,,,,,0,8,8,9,1,,,,,
,,,,,,,,,,ala054,03-12-2023_16h54.30.488,spanish_exp2,2022.1.4,Win32,60.30999337,,,space,5.2964,,,,,,target,ultimate,"""Compré esta lámpara ayer"" —iluminó contenta.",iluminar,1,,,,,,,,,,,,,,0,9,9,5,1,,,,,
,,,,,,,,,,ala054,03-12-2023_16h54.30.488,spanish_exp2,2022.1.4,Win32,60.30999337,,,space,5.746,,,,,,target,penultimate,"""Confirma la cita para mañana"" —le encamino con ilusión. ",encaminar,1,,,,,,,,,,,,,,0,10,10,6,1,,,,,
,,,,,,,,,,ala054,03-12-2023_16h54.30.488,spanish_exp2,2022.1.4,Win32,60.30999337,,,space,5.9784,,,,,,target,penultimate,"""No me gusta el té de manzanilla"" —abomino con certeza.",abominar,1,,,,,,,,,,,,,,0,11,11,0,1,,,,,
,,,,,,,,,,ala054,03-12-2023_16h54.30.488,spanish_exp2,2022.1.4,Win32,60.30999337,,,space,5.6633,,,,,,target,penultimate,"""Escriban la respuesta"" —los examino seriamente.",examinar,1,,,,,,,,,,,,,,0,12,12,4,1,,,,,
,,,,,,,,,,ala054,03-12-2023_16h54.30.488,spanish_exp2,2022.1.4,Win32,60.30999337,,,space,6.1562,,,,,,target,ultimate,"""Con la lluvia el viento es muy fuerte"" —determinó complacida.",determinar,1,,,,,,,,,,,,,,0,13,13,1,1,,,,,
,,,,,,,,,,ala054,03-12-2023_16h54.30.488,spanish_exp2,2022.1.4,Win32,60.30999337,,,,,,,,,,,,,,,,,,,,main_trial_block1.xlsx,,,,,,,,,,,,,0,0,0,0,1
,,,,,,,,,,ala054,03-12-2023_16h54.30.488,spanish_exp2,2022.1.4,Win32,60.30999337,,,space,5.7018,,,,,,target,penultimate,"""Estas son las luces nuevas"" —ilumino contenta.",iluminar,2,,,,,,,,,,,,,,0,0,0,5,1,,,,,
,,,,,,,,,,ala054,03-12-2023_16h54.30.488,spanish_exp2,2022.1.4,Win32,60.30999337,,,space,5.2271,,,,,,target,ultimate,"""Este es el camino más corto"" —la descaminó complacido.",descaminar,2,,,,,,,,,,,,,,0,1,1,2,1,,,,,
,,,,,,,,,,ala054,03-12-2023_16h54.30.488,spanish_exp2,2022.1.4,Win32,60.30999337,,,space,5.2277,,,,,,target,ultimate,"""No me gustan las corridas"" —abominó con certeza.",abominar,2,,,,,,,,,,,,,,0,2,2,0,1,,,,,
,,,,,,,,,,ala054,03-12-2023_16h54.30.488,spanish_exp2,2022.1.4,Win32,60.30999337,,,space,9.2842,,,,,,target,penultimate,"""Los Osvald, culpables"" —les incrimino seguro.",incriminar,2,,,,,,,,,,,,,,0,3,3,11,1,,,,,
,,,,,,,,,,ala054,03-12-2023_16h54.30.488,spanish_exp2,2022.1.4,Win32,60.30999337,,,space,5.5838,,,,,,target,ultimate,"""Tarjeta roja"" —los eliminó segura.",eliminar,2,,,,,,,,,,,,,,0,4,4,10,1,,,,,
,,,,,,,,,,ala054,03-12-2023_16h54.30.488,spanish_exp2,2022.1.4,Win32,60.30999337,,,space,4.9466,,,,,,target,penultimate,"""Se llamará beta"" —lo denomino complacido.",denominar,2,,,,,,,,,,,,,,0,5,5,13,1,,,,,
,,,,,,,,,,ala054,03-12-2023_16h54.30.488,spanish_exp2,2022.1.4,Win32,60.30999337,,,space,5.453,,,,,,target,penultimate,"""La masa del átomo es medible"" —determino complacida.",determinar,2,,,,,,,,,,,,,,0,6,6,1,1,,,,,
,,,,,,,,,,ala054,03-12-2023_16h54.30.488,spanish_exp2,2022.1.4,Win32,60.30999337,,,space,5.7847,,,,,,target,penultimate,"""No puedo estudiar matemáticas"" —me desanimo compungida.",desanimar,2,,,,,,,,,,,,,,0,7,7,9,1,,,,,
,,,,,,,,,,ala054,03-12-2023_16h54.30.488,spanish_exp2,2022.1.4,Win32,60.30999337,,,space,5.5451,,,,,,target,ultimate,"""Lee estos artículos"" —le encaminó con ilusión.",encaminar,2,,,,,,,,,,,,,,0,8,8,6,1,,,,,
,,,,,,,,,,ala054,03-12-2023_16h54.30.488,spanish_exp2,2022.1.4,Win32,60.30999337,,,space,6.0524,,,,,,target,penultimate,"""No me gusta su conducta"" —les recrimino con intensidad.",recriminar,2,,,,,,,,,,,,,,0,9,9,7,1,,,,,
,,,,,,,,,,ala054,03-12-2023_16h54.30.488,spanish_exp2,2022.1.4,Win32,60.30999337,,,space,4.6384,,,,,,target,ultimate,"""Este es más fuerte"" —discriminó tímida.",discriminar,2,,,,,,,,,,,,,,0,10,10,8,1,,,,,
,,,,,,,,,,ala054,03-12-2023_16h54.30.488,spanish_exp2,2022.1.4,Win32,60.30999337,,,space,5.979,,,,,,target,penultimate,"""La directora Pérez renuncia a su cargo"" —disemino compungido.",diseminar,2,,,,,,,,,,,,,,0,11,11,3,1,,,,,
,,,,,,,,,,ala054,03-12-2023_16h54.30.488,spanish_exp2,2022.1.4,Win32,60.30999337,,,space,5.5497,,,,,,target,ultimate,"""Desarrollen esta ecuación"" —los examinó seriamente.",examinar,2,,,,,,,,,,,,,,0,12,12,4,1,,,,,
,,,,,,,,,,ala054,03-12-2023_16h54.30.488,spanish_exp2,2022.1.4,Win32,60.30999337,,,space,5.9834,,,,,,target,ultimate,"""Este insecticida es muy eficaz"" —exterminó complacida.",exterminar,2,,,,,,,,,,,,,,0,13,13,12,1,,,,,
,,,,,,,,,,ala054,03-12-2023_16h54.30.488,spanish_exp2,2022.1.4,Win32,60.30999337,,,,,,,,,,,,,,,,,,,,main_trial_block2.xlsx,,,,,,,,,,,,,0,1,1,1,1
