key_resp.keys,key_resp.rt,key_resp_2.keys,key_resp_2.rt,trials_2.thisRepN,trials_2.thisTrialN,trials_2.thisN,trials_2.thisIndex,trials_2.ran,trialcatalan,participant ID,date,expName,psychopyVersion,OS,frameRate,key_resp_3.keys,key_resp_3.rt,key_resp_4.keys,key_resp_4.rt,trial_randomizer.thisRepN,trial_randomizer.thisTrialN,trial_randomizer.thisN,trial_randomizer.thisIndex,trial_randomizer.ran,fillertarget,stress,wordcatalan,verbcatalan,rand_12,block_randomizer.thisRepN,block_randomizer.thisTrialN,block_randomizer.thisN,block_randomizer.thisIndex,block_randomizer.ran,condsFile,key_resp_5.keys,key_resp_5.rt,mainTrialRep.thisRepN,mainTrialRep.thisTrialN,mainTrialRep.thisN,mainTrialRep.thisIndex,mainTrialRep.ran,trial_randomizer2.thisRepN,trial_randomizer2.thisTrialN,trial_randomizer2.thisN,trial_randomizer2.thisIndex,trial_randomizer2.ran,block_randomizer2.thisRepN,block_randomizer2.thisTrialN,block_randomizer2.thisN,block_randomizer2.thisIndex,block_randomizer2.ran
space,1763.0445,space,5.6236,0,0,0,0,1,"""Ha regalat un pastís al seu nebot"" —va pensar confiat.",ALC125,03-18-2023_10h01.33.886,catalan_exp2,2022.1.4,Win32,60.29181237,,,,,,,,,,,,,,,,,,,,,,,,,,,,,,,,,,,,,
,,space,4.5273,0,1,1,3,1,"""T'estimo molt"" —va sospirar content.",ALC125,03-18-2023_10h01.33.886,catalan_exp2,2022.1.4,Win32,60.29181237,,,,,,,,,,,,,,,,,,,,,,,,,,,,,,,,,,,,,
,,space,4.3027,0,2,2,1,1,"""Depèn de la temporada"" —explica seriòs.",ALC125,03-18-2023_10h01.33.886,catalan_exp2,2022.1.4,Win32,60.29181237,,,,,,,,,,,,,,,,,,,,,,,,,,,,,,,,,,,,,
,,space,4.3666,0,3,3,2,1,"""Voldria una mica de cafè"" —pensa complaguda.",ALC125,03-18-2023_10h01.33.886,catalan_exp2,2022.1.4,Win32,60.29181237,,,,,,,,,,,,,,,,,,,,,,,,,,,,,,,,,,,,,
,,,,,,,,,,ALC125,03-18-2023_10h01.33.886,catalan_exp2,2022.1.4,Win32,60.29181237,space,3.5189,space,5.302,0,0,0,5,1,target,ultimate,"""Acabo de comprar aquest llum"" —va il·luminar content.",illuminar,1,,,,,,,,,,,,,,,,,,,,,,,
,,,,,,,,,,ALC125,03-18-2023_10h01.33.886,catalan_exp2,2022.1.4,Win32,60.29181237,,,space,4.8166,0,1,1,8,1,target,penultimate,"""Aquest té menys sucre"" —discrimina tímid.",discriminar,1,,,,,,,,,,,,,,,,,,,,,,,
,,,,,,,,,,ALC125,03-18-2023_10h01.33.886,catalan_exp2,2022.1.4,Win32,60.29181237,,,space,5.4137,0,2,2,2,1,target,penultimate,"""Aquest no és el meu número de telèfon"" —la descamina complagut.",descaminar,1,,,,,,,,,,,,,,,,,,,,,,,
,,,,,,,,,,ALC125,03-18-2023_10h01.33.886,catalan_exp2,2022.1.4,Win32,60.29181237,,,space,4.7786,0,3,3,0,1,target,penultimate,"""No m'agrada el te de camamilla"" —abomina plena.",abominar,1,,,,,,,,,,,,,,,,,,,,,,,
,,,,,,,,,,ALC125,03-18-2023_10h01.33.886,catalan_exp2,2022.1.4,Win32,60.29181237,,,space,5.9791,0,4,4,9,1,target,ultimate,"""No puc cuinar sense cremar el menjar"" —es va desanimar seriós.",desanimar,1,,,,,,,,,,,,,,,,,,,,,,,
,,,,,,,,,,ALC125,03-18-2023_10h01.33.886,catalan_exp2,2022.1.4,Win32,60.29181237,,,space,5.2013,0,5,5,13,1,target,ultimate,"""Retrat d'un home trist"" —va denominar concret.",denominar,1,,,,,,,,,,,,,,,,,,,,,,,
,,,,,,,,,,ALC125,03-18-2023_10h01.33.886,catalan_exp2,2022.1.4,Win32,60.29181237,,,space,5.4181,0,6,6,1,1,target,ultimate,"""Amb la pluja el vent és molt fort"" —va determinar complaguda.",determinar,1,,,,,,,,,,,,,,,,,,,,,,,
,,,,,,,,,,ALC125,03-18-2023_10h01.33.886,catalan_exp2,2022.1.4,Win32,60.29181237,,,space,5.2458,0,7,7,6,1,target,penultimate,"""Confirmin la cita per demà"" —les encamina tímida.",encaminar,1,,,,,,,,,,,,,,,,,,,,,,,
,,,,,,,,,,ALC125,03-18-2023_10h01.33.886,catalan_exp2,2022.1.4,Win32,60.29181237,,,space,5.1448,0,8,8,12,1,target,penultimate,"""No hi haurà més bestioles"" —extermina complaguda.",exterminar,1,,,,,,,,,,,,,,,,,,,,,,,
,,,,,,,,,,ALC125,03-18-2023_10h01.33.886,catalan_exp2,2022.1.4,Win32,60.29181237,,,space,4.535,0,9,9,7,1,target,ultimate,"""És culpa teva"" —li va recriminar seriosa.",recriminar,1,,,,,,,,,,,,,,,,,,,,,,,
,,,,,,,,,,ALC125,03-18-2023_10h01.33.886,catalan_exp2,2022.1.4,Win32,60.29181237,,,space,4.4143,0,10,10,10,1,target,penultimate,"""No són necessaris"" —elimina segura.",eliminar,1,,,,,,,,,,,,,,,,,,,,,,,
,,,,,,,,,,ALC125,03-18-2023_10h01.33.886,catalan_exp2,2022.1.4,Win32,60.29181237,,,space,5.8163,0,11,11,3,1,target,ultimate,"""El president de l'estat està malalt"" —va disseminar prematura.",disseminar,1,,,,,,,,,,,,,,,,,,,,,,,
,,,,,,,,,,ALC125,03-18-2023_10h01.33.886,catalan_exp2,2022.1.4,Win32,60.29181237,,,space,6.8684,0,12,12,11,1,target,ultimate,"""Van entrar sense demanar permís"" —les va incriminar confiat.",incriminar,1,,,,,,,,,,,,,,,,,,,,,,,
,,,,,,,,,,ALC125,03-18-2023_10h01.33.886,catalan_exp2,2022.1.4,Win32,60.29181237,,,space,5.551,0,13,13,4,1,target,penultimate,"""Escriguin la resposta"" —els examina clarament.",examinar,1,,,,,,,,,,,,,,,,,,,,,,,
,,,,,,,,,,ALC125,03-18-2023_10h01.33.886,catalan_exp2,2022.1.4,Win32,60.29181237,,,,,,,,,,,,,,,0,0,0,0,1,main_trial_block1.xlsx,,,,,,,,,,,,,,,,,
,,,,,,,,,,ALC125,03-18-2023_10h01.33.886,catalan_exp2,2022.1.4,Win32,60.29181237,,,space,6.7415,0,0,0,0,1,target,ultimate,"""No m'agraden gens les curses de braus"" —va abominar plena.",abominar,2,,,,,,,,,,,,,,,,,,,,,,,
,,,,,,,,,,ALC125,03-18-2023_10h01.33.886,catalan_exp2,2022.1.4,Win32,60.29181237,,,space,5.9167,0,1,1,6,1,target,ultimate,"""Llegiu aquests articles"" —les va encaminar tímida.",encaminar,2,,,,,,,,,,,,,,,,,,,,,,,
,,,,,,,,,,ALC125,03-18-2023_10h01.33.886,catalan_exp2,2022.1.4,Win32,60.29181237,,,space,5.706,0,2,2,10,1,target,ultimate,"""Érem a casa a l'hora del crim"" —va eliminar segura.",eliminar,2,,,,,,,,,,,,,,,,,,,,,,,
,,,,,,,,,,ALC125,03-18-2023_10h01.33.886,catalan_exp2,2022.1.4,Win32,60.29181237,,,space,5.5966,0,3,3,13,1,target,penultimate,"""Aquest gen es diu beta"" —denomina concret.",denominar,2,,,,,,,,,,,,,,,,,,,,,,,
,,,,,,,,,,ALC125,03-18-2023_10h01.33.886,catalan_exp2,2022.1.4,Win32,60.29181237,,,space,5.6758,0,4,4,12,1,target,ultimate,"""Aquest verí va molt bé"" —va exterminar complaguda.",exterminar,2,,,,,,,,,,,,,,,,,,,,,,,
,,,,,,,,,,ALC125,03-18-2023_10h01.33.886,catalan_exp2,2022.1.4,Win32,60.29181237,,,space,5.2156,0,5,5,9,1,target,penultimate,"""No passaré mai l'examen"" —es desanima seriós.",desanimar,2,,,,,,,,,,,,,,,,,,,,,,,
,,,,,,,,,,ALC125,03-18-2023_10h01.33.886,catalan_exp2,2022.1.4,Win32,60.29181237,,,space,5.9917,0,6,6,3,1,target,penultimate,"""La senyora Martí renuncia al seu càrrec"" —dissemina prematura.",disseminar,2,,,,,,,,,,,,,,,,,,,,,,,
,,,,,,,,,,ALC125,03-18-2023_10h01.33.886,catalan_exp2,2022.1.4,Win32,60.29181237,,,space,5.4956,0,7,7,4,1,target,ultimate,"""Facin aquesta equació"" —els va examinar clarament.",examinar,2,,,,,,,,,,,,,,,,,,,,,,,
,,,,,,,,,,ALC125,03-18-2023_10h01.33.886,catalan_exp2,2022.1.4,Win32,60.29181237,,,space,5.0242,0,8,8,11,1,target,penultimate,"""Vostès són les culpables"" —les incrimina confiat.",incriminar,2,,,,,,,,,,,,,,,,,,,,,,,
,,,,,,,,,,ALC125,03-18-2023_10h01.33.886,catalan_exp2,2022.1.4,Win32,60.29181237,,,space,5.1838,0,9,9,7,1,target,penultimate,"""No m'agrada que em truquis"" —li recrimina seriosa.",recriminar,2,,,,,,,,,,,,,,,,,,,,,,,
,,,,,,,,,,ALC125,03-18-2023_10h01.33.886,catalan_exp2,2022.1.4,Win32,60.29181237,,,space,5.2913,0,10,10,8,1,target,ultimate,"""Aquest és més fort"" —va discriminar tímid.",discriminar,2,,,,,,,,,,,,,,,,,,,,,,,
,,,,,,,,,,ALC125,03-18-2023_10h01.33.886,catalan_exp2,2022.1.4,Win32,60.29181237,,,space,5.0996,0,11,11,5,1,target,penultimate,"""Bon Nadal a tots"" —il·lumina content.",illuminar,2,,,,,,,,,,,,,,,,,,,,,,,
,,,,,,,,,,ALC125,03-18-2023_10h01.33.886,catalan_exp2,2022.1.4,Win32,60.29181237,,,space,5.8032,0,12,12,2,1,target,ultimate,"""Aquest és el camí més curt"" —la va descaminar complagut.",descaminar,2,,,,,,,,,,,,,,,,,,,,,,,
,,,,,,,,,,ALC125,03-18-2023_10h01.33.886,catalan_exp2,2022.1.4,Win32,60.29181237,,,space,5.59,0,13,13,1,1,target,penultimate,"""La massa de l'àtom és mesurable"" —determina complaguda.",determinar,2,,,,,,,,,,,,,,,,,,,,,,,
,,,,,,,,,,ALC125,03-18-2023_10h01.33.886,catalan_exp2,2022.1.4,Win32,60.29181237,,,,,,,,,,,,,,,0,1,1,1,1,main_trial_block2.xlsx,,,,,,,,,,,,,,,,,
,,,,,,,,,,ALC125,03-18-2023_10h01.33.886,catalan_exp2,2022.1.4,Win32,60.29181237,,,,,,,,,,,,,,,,,,,,,space,17.6696,0,0,0,0,1,,,,,,,,,,
,,,,,,,,,,ALC125,03-18-2023_10h01.33.886,catalan_exp2,2022.1.4,Win32,60.29181237,,,space,5.1935,0,0,0,13,1,target,ultimate,"""Retrat d'un home trist"" —va denominar concret.",denominar,1,,,,,,,,,,,,,,,,,,,,,,,
,,,,,,,,,,ALC125,03-18-2023_10h01.33.886,catalan_exp2,2022.1.4,Win32,60.29181237,,,space,5.255,0,1,1,2,1,target,penultimate,"""Aquest no és el meu número de telèfon"" —la descamina complagut.",descaminar,1,,,,,,,,,,,,,,,,,,,,,,,
,,,,,,,,,,ALC125,03-18-2023_10h01.33.886,catalan_exp2,2022.1.4,Win32,60.29181237,,,space,5.5182,0,2,2,3,1,target,ultimate,"""El president de l'estat està malalt"" —va disseminar prematura.",disseminar,1,,,,,,,,,,,,,,,,,,,,,,,
,,,,,,,,,,ALC125,03-18-2023_10h01.33.886,catalan_exp2,2022.1.4,Win32,60.29181237,,,space,5.4114,0,3,3,11,1,target,ultimate,"""Van entrar sense demanar permís"" —les va incriminar confiat.",incriminar,1,,,,,,,,,,,,,,,,,,,,,,,
,,,,,,,,,,ALC125,03-18-2023_10h01.33.886,catalan_exp2,2022.1.4,Win32,60.29181237,,,space,5.0835,0,4,4,6,1,target,penultimate,"""Confirmin la cita per demà"" —les encamina tímida.",encaminar,1,,,,,,,,,,,,,,,,,,,,,,,
,,,,,,,,,,ALC125,03-18-2023_10h01.33.886,catalan_exp2,2022.1.4,Win32,60.29181237,,,space,4.4643,0,5,5,7,1,target,ultimate,"""És culpa teva"" —li va recriminar seriosa.",recriminar,1,,,,,,,,,,,,,,,,,,,,,,,
,,,,,,,,,,ALC125,03-18-2023_10h01.33.886,catalan_exp2,2022.1.4,Win32,60.29181237,,,space,5.4266,0,6,6,1,1,target,ultimate,"""Amb la pluja el vent és molt fort"" —va determinar complaguda.",determinar,1,,,,,,,,,,,,,,,,,,,,,,,
,,,,,,,,,,ALC125,03-18-2023_10h01.33.886,catalan_exp2,2022.1.4,Win32,60.29181237,,,space,5.2988,0,7,7,5,1,target,ultimate,"""Acabo de comprar aquest llum"" —va il·luminar content.",illuminar,1,,,,,,,,,,,,,,,,,,,,,,,
,,,,,,,,,,ALC125,03-18-2023_10h01.33.886,catalan_exp2,2022.1.4,Win32,60.29181237,,,space,4.5867,0,8,8,10,1,target,penultimate,"""No són necessaris"" —elimina segura.",eliminar,1,,,,,,,,,,,,,,,,,,,,,,,
,,,,,,,,,,ALC125,03-18-2023_10h01.33.886,catalan_exp2,2022.1.4,Win32,60.29181237,,,space,5.191,0,9,9,0,1,target,penultimate,"""No m'agrada el te de camamilla"" —abomina plena.",abominar,1,,,,,,,,,,,,,,,,,,,,,,,
,,,,,,,,,,ALC125,03-18-2023_10h01.33.886,catalan_exp2,2022.1.4,Win32,60.29181237,,,space,6.1439,0,10,10,9,1,target,ultimate,"""No puc cuinar sense cremar el menjar"" —es va desanimar seriós.",desanimar,1,,,,,,,,,,,,,,,,,,,,,,,
,,,,,,,,,,ALC125,03-18-2023_10h01.33.886,catalan_exp2,2022.1.4,Win32,60.29181237,,,space,5.9875,0,11,11,4,1,target,penultimate,"""Escriguin la resposta"" —els examina clarament.",examinar,1,,,,,,,,,,,,,,,,,,,,,,,
,,,,,,,,,,ALC125,03-18-2023_10h01.33.886,catalan_exp2,2022.1.4,Win32,60.29181237,,,space,5.4008,0,12,12,12,1,target,penultimate,"""No hi haurà més bestioles"" —extermina complaguda.",exterminar,1,,,,,,,,,,,,,,,,,,,,,,,
,,,,,,,,,,ALC125,03-18-2023_10h01.33.886,catalan_exp2,2022.1.4,Win32,60.29181237,,,space,4.5028,0,13,13,8,1,target,penultimate,"""Aquest té menys sucre"" —discrimina tímid.",discriminar,1,,,,,,,,,,,,,,,,,,,,,,,
,,,,,,,,,,ALC125,03-18-2023_10h01.33.886,catalan_exp2,2022.1.4,Win32,60.29181237,,,,,,,,,,,,,,,0,0,0,0,1,main_trial_block1.xlsx,,,,,,,,,,,,,,,,,
,,,,,,,,,,ALC125,03-18-2023_10h01.33.886,catalan_exp2,2022.1.4,Win32,60.29181237,,,space,4.9433,0,0,0,1,1,target,penultimate,"""La massa de l'àtom és mesurable"" —determina complaguda.",determinar,2,,,,,,,,,,,,,,,,,,,,,,,
,,,,,,,,,,ALC125,03-18-2023_10h01.33.886,catalan_exp2,2022.1.4,Win32,60.29181237,,,space,5.217,0,1,1,0,1,target,ultimate,"""No m'agraden gens les curses de braus"" —va abominar plena.",abominar,2,,,,,,,,,,,,,,,,,,,,,,,
,,,,,,,,,,ALC125,03-18-2023_10h01.33.886,catalan_exp2,2022.1.4,Win32,60.29181237,,,space,4.6502,0,2,2,7,1,target,penultimate,"""No m'agrada que em truquis"" —li recrimina seriosa.",recriminar,2,,,,,,,,,,,,,,,,,,,,,,,
,,,,,,,,,,ALC125,03-18-2023_10h01.33.886,catalan_exp2,2022.1.4,Win32,60.29181237,,,space,4.5456,0,3,3,6,1,target,ultimate,"""Llegiu aquests articles"" —les va encaminar tímida.",encaminar,2,,,,,,,,,,,,,,,,,,,,,,,
,,,,,,,,,,ALC125,03-18-2023_10h01.33.886,catalan_exp2,2022.1.4,Win32,60.29181237,,,space,4.7983,0,4,4,13,1,target,penultimate,"""Aquest gen es diu beta"" —denomina concret.",denominar,2,,,,,,,,,,,,,,,,,,,,,,,
,,,,,,,,,,ALC125,03-18-2023_10h01.33.886,catalan_exp2,2022.1.4,Win32,60.29181237,,,space,4.2207,0,5,5,5,1,target,penultimate,"""Bon Nadal a tots"" —il·lumina content.",illuminar,2,,,,,,,,,,,,,,,,,,,,,,,
,,,,,,,,,,ALC125,03-18-2023_10h01.33.886,catalan_exp2,2022.1.4,Win32,60.29181237,,,space,5.5294,0,6,6,11,1,target,penultimate,"""Vostès són les culpables"" —les incrimina confiat.",incriminar,2,,,,,,,,,,,,,,,,,,,,,,,
,,,,,,,,,,ALC125,03-18-2023_10h01.33.886,catalan_exp2,2022.1.4,Win32,60.29181237,,,space,5.7881,0,7,7,3,1,target,penultimate,"""La senyora Martí renuncia al seu càrrec"" —dissemina prematura.",disseminar,2,,,,,,,,,,,,,,,,,,,,,,,
,,,,,,,,,,ALC125,03-18-2023_10h01.33.886,catalan_exp2,2022.1.4,Win32,60.29181237,,,space,5.7833,0,8,8,9,1,target,penultimate,"""No passaré mai l'examen"" —es desanima seriós.",desanimar,2,,,,,,,,,,,,,,,,,,,,,,,
,,,,,,,,,,ALC125,03-18-2023_10h01.33.886,catalan_exp2,2022.1.4,Win32,60.29181237,,,space,5.4843,0,9,9,2,1,target,ultimate,"""Aquest és el camí més curt"" —la va descaminar complagut.",descaminar,2,,,,,,,,,,,,,,,,,,,,,,,
,,,,,,,,,,ALC125,03-18-2023_10h01.33.886,catalan_exp2,2022.1.4,Win32,60.29181237,,,space,5.3294,0,10,10,8,1,target,ultimate,"""Aquest és més fort"" —va discriminar tímid.",discriminar,2,,,,,,,,,,,,,,,,,,,,,,,
,,,,,,,,,,ALC125,03-18-2023_10h01.33.886,catalan_exp2,2022.1.4,Win32,60.29181237,,,space,5.1989,0,11,11,4,1,target,ultimate,"""Facin aquesta equació"" —els va examinar clarament.",examinar,2,,,,,,,,,,,,,,,,,,,,,,,
,,,,,,,,,,ALC125,03-18-2023_10h01.33.886,catalan_exp2,2022.1.4,Win32,60.29181237,,,space,5.58,0,12,12,12,1,target,ultimate,"""Aquest verí va molt bé"" —va exterminar complaguda.",exterminar,2,,,,,,,,,,,,,,,,,,,,,,,
,,,,,,,,,,ALC125,03-18-2023_10h01.33.886,catalan_exp2,2022.1.4,Win32,60.29181237,,,space,5.2945,0,13,13,10,1,target,ultimate,"""Érem a casa a l'hora del crim"" —va eliminar segura.",eliminar,2,,,,,,,,,,,,,,,,,,,,,,,
,,,,,,,,,,ALC125,03-18-2023_10h01.33.886,catalan_exp2,2022.1.4,Win32,60.29181237,,,,,,,,,,,,,,,0,1,1,1,1,main_trial_block2.xlsx,,,,,,,,,,,,,,,,,
,,,,,,,,,,ALC125,03-18-2023_10h01.33.886,catalan_exp2,2022.1.4,Win32,60.29181237,,,,,,,,,,,,,,,,,,,,,space,16.0954,1,0,1,0,1,,,,,,,,,,
,,,,,,,,,,ALC125,03-18-2023_10h01.33.886,catalan_exp2,2022.1.4,Win32,60.29181237,,,space,5.3375,,,,,,target,ultimate,"""No m'agraden gens les curses de braus"" —va abominar plena.",abominar,2,,,,,,,,,,,,,,0,0,0,0,1,,,,,
,,,,,,,,,,ALC125,03-18-2023_10h01.33.886,catalan_exp2,2022.1.4,Win32,60.29181237,,,space,5.1117,,,,,,target,ultimate,"""Aquest és el camí més curt"" —la va descaminar complagut.",descaminar,2,,,,,,,,,,,,,,0,1,1,2,1,,,,,
,,,,,,,,,,ALC125,03-18-2023_10h01.33.886,catalan_exp2,2022.1.4,Win32,60.29181237,,,space,5.8096,,,,,,target,penultimate,"""La senyora Martí renuncia al seu càrrec"" —dissemina prematura.",disseminar,2,,,,,,,,,,,,,,0,2,2,3,1,,,,,
,,,,,,,,,,ALC125,03-18-2023_10h01.33.886,catalan_exp2,2022.1.4,Win32,60.29181237,,,space,4.7861,,,,,,target,ultimate,"""Aquest verí va molt bé"" —va exterminar complaguda.",exterminar,2,,,,,,,,,,,,,,0,3,3,12,1,,,,,
,,,,,,,,,,ALC125,03-18-2023_10h01.33.886,catalan_exp2,2022.1.4,Win32,60.29181237,,,space,4.6637,,,,,,target,ultimate,"""Aquest és més fort"" —va discriminar tímid.",discriminar,2,,,,,,,,,,,,,,0,4,4,8,1,,,,,
,,,,,,,,,,ALC125,03-18-2023_10h01.33.886,catalan_exp2,2022.1.4,Win32,60.29181237,,,space,4.4379,,,,,,target,ultimate,"""Érem a casa a l'hora del crim"" —va eliminar segura.",eliminar,2,,,,,,,,,,,,,,0,5,5,10,1,,,,,
,,,,,,,,,,ALC125,03-18-2023_10h01.33.886,catalan_exp2,2022.1.4,Win32,60.29181237,,,space,5.1149,,,,,,target,ultimate,"""Llegiu aquests articles"" —les va encaminar tímida.",encaminar,2,,,,,,,,,,,,,,0,6,6,6,1,,,,,
,,,,,,,,,,ALC125,03-18-2023_10h01.33.886,catalan_exp2,2022.1.4,Win32,60.29181237,,,space,5.3197,,,,,,target,penultimate,"""Vostès són les culpables"" —les incrimina confiat.",incriminar,2,,,,,,,,,,,,,,0,7,7,11,1,,,,,
,,,,,,,,,,ALC125,03-18-2023_10h01.33.886,catalan_exp2,2022.1.4,Win32,60.29181237,,,space,5.562,,,,,,target,penultimate,"""Aquest gen es diu beta"" —denomina concret.",denominar,2,,,,,,,,,,,,,,0,8,8,13,1,,,,,
,,,,,,,,,,ALC125,03-18-2023_10h01.33.886,catalan_exp2,2022.1.4,Win32,60.29181237,,,space,5.3079,,,,,,target,ultimate,"""Facin aquesta equació"" —els va examinar clarament.",examinar,2,,,,,,,,,,,,,,0,9,9,4,1,,,,,
,,,,,,,,,,ALC125,03-18-2023_10h01.33.886,catalan_exp2,2022.1.4,Win32,60.29181237,,,space,4.915,,,,,,target,penultimate,"""La massa de l'àtom és mesurable"" —determina complaguda.",determinar,2,,,,,,,,,,,,,,0,10,10,1,1,,,,,
,,,,,,,,,,ALC125,03-18-2023_10h01.33.886,catalan_exp2,2022.1.4,Win32,60.29181237,,,space,6.6383,,,,,,target,penultimate,"""No passaré mai l'examen"" —es desanima seriós.",desanimar,2,,,,,,,,,,,,,,0,11,11,9,1,,,,,
,,,,,,,,,,ALC125,03-18-2023_10h01.33.886,catalan_exp2,2022.1.4,Win32,60.29181237,,,space,5.5814,,,,,,target,penultimate,"""No m'agrada que em truquis"" —li recrimina seriosa.",recriminar,2,,,,,,,,,,,,,,0,12,12,7,1,,,,,
,,,,,,,,,,ALC125,03-18-2023_10h01.33.886,catalan_exp2,2022.1.4,Win32,60.29181237,,,space,4.1329,,,,,,target,penultimate,"""Bon Nadal a tots"" —il·lumina content.",illuminar,2,,,,,,,,,,,,,,0,13,13,5,1,,,,,
,,,,,,,,,,ALC125,03-18-2023_10h01.33.886,catalan_exp2,2022.1.4,Win32,60.29181237,,,,,,,,,,,,,,,,,,,,main_trial_block2.xlsx,,,,,,,,,,,,,0,0,0,1,1
,,,,,,,,,,ALC125,03-18-2023_10h01.33.886,catalan_exp2,2022.1.4,Win32,60.29181237,,,space,5.1609,,,,,,target,penultimate,"""No m'agrada el te de camamilla"" —abomina plena.",abominar,1,,,,,,,,,,,,,,0,0,0,0,1,,,,,
,,,,,,,,,,ALC125,03-18-2023_10h01.33.886,catalan_exp2,2022.1.4,Win32,60.29181237,,,space,4.975,,,,,,target,ultimate,"""Retrat d'un home trist"" —va denominar concret.",denominar,1,,,,,,,,,,,,,,0,1,1,13,1,,,,,
,,,,,,,,,,ALC125,03-18-2023_10h01.33.886,catalan_exp2,2022.1.4,Win32,60.29181237,,,space,6.3573,,,,,,target,ultimate,"""Van entrar sense demanar permís"" —les va incriminar confiat.",incriminar,1,,,,,,,,,,,,,,0,2,2,11,1,,,,,
,,,,,,,,,,ALC125,03-18-2023_10h01.33.886,catalan_exp2,2022.1.4,Win32,60.29181237,,,space,5.1749,,,,,,target,penultimate,"""Escriguin la resposta"" —els examina clarament.",examinar,1,,,,,,,,,,,,,,0,3,3,4,1,,,,,
,,,,,,,,,,ALC125,03-18-2023_10h01.33.886,catalan_exp2,2022.1.4,Win32,60.29181237,,,space,4.9265,,,,,,target,penultimate,"""Aquest té menys sucre"" —discrimina tímid.",discriminar,1,,,,,,,,,,,,,,0,4,4,8,1,,,,,
,,,,,,,,,,ALC125,03-18-2023_10h01.33.886,catalan_exp2,2022.1.4,Win32,60.29181237,,,space,6.7532,,,,,,target,ultimate,"""No puc cuinar sense cremar el menjar"" —es va desanimar seriós.",desanimar,1,,,,,,,,,,,,,,0,5,5,9,1,,,,,
,,,,,,,,,,ALC125,03-18-2023_10h01.33.886,catalan_exp2,2022.1.4,Win32,60.29181237,,,space,5.3918,,,,,,target,penultimate,"""Confirmin la cita per demà"" —les encamina tímida.",encaminar,1,,,,,,,,,,,,,,0,6,6,6,1,,,,,
,,,,,,,,,,ALC125,03-18-2023_10h01.33.886,catalan_exp2,2022.1.4,Win32,60.29181237,,,space,5.426,,,,,,target,penultimate,"""No hi haurà més bestioles"" —extermina complaguda.",exterminar,1,,,,,,,,,,,,,,0,7,7,12,1,,,,,
,,,,,,,,,,ALC125,03-18-2023_10h01.33.886,catalan_exp2,2022.1.4,Win32,60.29181237,,,space,4.2688,,,,,,target,penultimate,"""No són necessaris"" —elimina segura.",eliminar,1,,,,,,,,,,,,,,0,8,8,10,1,,,,,
,,,,,,,,,,ALC125,03-18-2023_10h01.33.886,catalan_exp2,2022.1.4,Win32,60.29181237,,,space,5.5266,,,,,,target,ultimate,"""Amb la pluja el vent és molt fort"" —va determinar complaguda.",determinar,1,,,,,,,,,,,,,,0,9,9,1,1,,,,,
,,,,,,,,,,ALC125,03-18-2023_10h01.33.886,catalan_exp2,2022.1.4,Win32,60.29181237,,,space,5.2215,,,,,,target,penultimate,"""Aquest no és el meu número de telèfon"" —la descamina complagut.",descaminar,1,,,,,,,,,,,,,,0,10,10,2,1,,,,,
,,,,,,,,,,ALC125,03-18-2023_10h01.33.886,catalan_exp2,2022.1.4,Win32,60.29181237,,,space,5.6079,,,,,,target,ultimate,"""El president de l'estat està malalt"" —va disseminar prematura.",disseminar,1,,,,,,,,,,,,,,0,11,11,3,1,,,,,
,,,,,,,,,,ALC125,03-18-2023_10h01.33.886,catalan_exp2,2022.1.4,Win32,60.29181237,,,space,4.5692,,,,,,target,ultimate,"""És culpa teva"" —li va recriminar seriosa.",recriminar,1,,,,,,,,,,,,,,0,12,12,7,1,,,,,
,,,,,,,,,,ALC125,03-18-2023_10h01.33.886,catalan_exp2,2022.1.4,Win32,60.29181237,,,space,5.4011,,,,,,target,ultimate,"""Acabo de comprar aquest llum"" —va il·luminar content.",illuminar,1,,,,,,,,,,,,,,0,13,13,5,1,,,,,
,,,,,,,,,,ALC125,03-18-2023_10h01.33.886,catalan_exp2,2022.1.4,Win32,60.29181237,,,,,,,,,,,,,,,,,,,,main_trial_block1.xlsx,,,,,,,,,,,,,0,1,1,0,1
