key_resp.keys,key_resp.rt,key_resp_2.keys,key_resp_2.rt,trials_2.thisRepN,trials_2.thisTrialN,trials_2.thisN,trials_2.thisIndex,trials_2.ran,trialcatalan,participant ID,date,expName,psychopyVersion,OS,frameRate,key_resp_3.keys,key_resp_3.rt,key_resp_4.keys,key_resp_4.rt,trial_randomizer.thisRepN,trial_randomizer.thisTrialN,trial_randomizer.thisN,trial_randomizer.thisIndex,trial_randomizer.ran,fillertarget,stress,wordcatalan,verbcatalan,rand_12,block_randomizer.thisRepN,block_randomizer.thisTrialN,block_randomizer.thisN,block_randomizer.thisIndex,block_randomizer.ran,condsFile,key_resp_5.keys,key_resp_5.rt,mainTrialRep.thisRepN,mainTrialRep.thisTrialN,mainTrialRep.thisN,mainTrialRep.thisIndex,mainTrialRep.ran,trial_randomizer2.thisRepN,trial_randomizer2.thisTrialN,trial_randomizer2.thisN,trial_randomizer2.thisIndex,trial_randomizer2.ran,block_randomizer2.thisRepN,block_randomizer2.thisTrialN,block_randomizer2.thisN,block_randomizer2.thisIndex,block_randomizer2.ran
space,3605.9426,space,7.4423,0,0,0,0,1,"""Ha regalat un pastís al seu nebot"" —va pensar confiat.",aoa302,02/21/2023_18h51.29.593,catalan_exp2,2022.1.4,Win32,60.17209218,,,,,,,,,,,,,,,,,,,,,,,,,,,,,,,,,,,,,
,,space,5.1755,0,1,1,3,1,"""T'estimo molt"" —va sospirar content.",aoa302,02/21/2023_18h51.29.593,catalan_exp2,2022.1.4,Win32,60.17209218,,,,,,,,,,,,,,,,,,,,,,,,,,,,,,,,,,,,,
,,space,5.3544,0,2,2,1,1,"""Depèn de la temporada"" —explica seriòs.",aoa302,02/21/2023_18h51.29.593,catalan_exp2,2022.1.4,Win32,60.17209218,,,,,,,,,,,,,,,,,,,,,,,,,,,,,,,,,,,,,
,,space,8.6944,0,3,3,2,1,"""Voldria una mica de cafè"" —pensa complaguda.",aoa302,02/21/2023_18h51.29.593,catalan_exp2,2022.1.4,Win32,60.17209218,,,,,,,,,,,,,,,,,,,,,,,,,,,,,,,,,,,,,
,,,,,,,,,,aoa302,02/21/2023_18h51.29.593,catalan_exp2,2022.1.4,Win32,60.17209218,space,11.2196,space,7.2408,0,0,0,12,1,target,ultimate,"""Aquest verí va molt bé"" —va exterminar complaguda.",exterminar,2,,,,,,,,,,,,,,,,,,,,,,,
,,,,,,,,,,aoa302,02/21/2023_18h51.29.593,catalan_exp2,2022.1.4,Win32,60.17209218,,,space,22.1757,0,1,1,1,1,target,penultimate,"""La massa de l'àtom és mesurable"" —determina complaguda.",determinar,2,,,,,,,,,,,,,,,,,,,,,,,
,,,,,,,,,,aoa302,02/21/2023_18h51.29.593,catalan_exp2,2022.1.4,Win32,60.17209218,,,space,5.6074,0,2,2,5,1,target,penultimate,"""Bon Nadal a tots"" —il·lumina content.",illuminar,2,,,,,,,,,,,,,,,,,,,,,,,
,,,,,,,,,,aoa302,02/21/2023_18h51.29.593,catalan_exp2,2022.1.4,Win32,60.17209218,,,space,5.7657,0,3,3,8,1,target,ultimate,"""Aquest és més fort"" —va discriminar tímid.",discriminar,2,,,,,,,,,,,,,,,,,,,,,,,
,,,,,,,,,,aoa302,02/21/2023_18h51.29.593,catalan_exp2,2022.1.4,Win32,60.17209218,,,space,9.7018,0,4,4,3,1,target,penultimate,"""La senyora Martí renuncia al seu càrrec"" —dissemina prematura.",disseminar,2,,,,,,,,,,,,,,,,,,,,,,,
,,,,,,,,,,aoa302,02/21/2023_18h51.29.593,catalan_exp2,2022.1.4,Win32,60.17209218,,,space,6.5423,0,5,5,10,1,target,ultimate,"""Érem a casa a l'hora del crim"" —va eliminar segura.",eliminar,2,,,,,,,,,,,,,,,,,,,,,,,
,,,,,,,,,,aoa302,02/21/2023_18h51.29.593,catalan_exp2,2022.1.4,Win32,60.17209218,,,space,6.9054,0,6,6,9,1,target,penultimate,"""No passaré mai l'examen"" —es desanima seriós.",desanimar,2,,,,,,,,,,,,,,,,,,,,,,,
,,,,,,,,,,aoa302,02/21/2023_18h51.29.593,catalan_exp2,2022.1.4,Win32,60.17209218,,,space,25.863,0,7,7,7,1,target,penultimate,"""No m'agrada que em truquis"" —li recrimina seriosa.",recriminar,2,,,,,,,,,,,,,,,,,,,,,,,
,,,,,,,,,,aoa302,02/21/2023_18h51.29.593,catalan_exp2,2022.1.4,Win32,60.17209218,,,space,7.0384,0,8,8,11,1,target,penultimate,"""Vostès són les culpables"" —les incrimina confiat.",incriminar,2,,,,,,,,,,,,,,,,,,,,,,,
,,,,,,,,,,aoa302,02/21/2023_18h51.29.593,catalan_exp2,2022.1.4,Win32,60.17209218,,,space,5.9415,0,9,9,4,1,target,ultimate,"""Facin aquesta equació"" —els va examinar clarament.",examinar,2,,,,,,,,,,,,,,,,,,,,,,,
,,,,,,,,,,aoa302,02/21/2023_18h51.29.593,catalan_exp2,2022.1.4,Win32,60.17209218,,,space,13.4842,0,10,10,6,1,target,ultimate,"""Llegiu aquests articles"" —les va encaminar tímida.",encaminar,2,,,,,,,,,,,,,,,,,,,,,,,
,,,,,,,,,,aoa302,02/21/2023_18h51.29.593,catalan_exp2,2022.1.4,Win32,60.17209218,,,space,8.5272,0,11,11,0,1,target,ultimate,"""No m'agraden gens les curses de braus"" —va abominar plena.",abominar,2,,,,,,,,,,,,,,,,,,,,,,,
,,,,,,,,,,aoa302,02/21/2023_18h51.29.593,catalan_exp2,2022.1.4,Win32,60.17209218,,,space,6.957,0,12,12,2,1,target,ultimate,"""Aquest és el camí més curt"" —la va descaminar complagut.",descaminar,2,,,,,,,,,,,,,,,,,,,,,,,
,,,,,,,,,,aoa302,02/21/2023_18h51.29.593,catalan_exp2,2022.1.4,Win32,60.17209218,,,space,5.7117,0,13,13,13,1,target,penultimate,"""Aquest gen es diu beta"" —denomina concret.",denominar,2,,,,,,,,,,,,,,,,,,,,,,,
,,,,,,,,,,aoa302,02/21/2023_18h51.29.593,catalan_exp2,2022.1.4,Win32,60.17209218,,,,,,,,,,,,,,,0,0,0,1,1,main_trial_block2.xlsx,,,,,,,,,,,,,,,,,
,,,,,,,,,,aoa302,02/21/2023_18h51.29.593,catalan_exp2,2022.1.4,Win32,60.17209218,,,space,6.8487,0,0,0,13,1,target,ultimate,"""Retrat d'un home trist"" —va denominar concret.",denominar,1,,,,,,,,,,,,,,,,,,,,,,,
,,,,,,,,,,aoa302,02/21/2023_18h51.29.593,catalan_exp2,2022.1.4,Win32,60.17209218,,,space,7.735,0,1,1,1,1,target,ultimate,"""Amb la pluja el vent és molt fort"" —va determinar complaguda.",determinar,1,,,,,,,,,,,,,,,,,,,,,,,
,,,,,,,,,,aoa302,02/21/2023_18h51.29.593,catalan_exp2,2022.1.4,Win32,60.17209218,,,space,7.7392,0,2,2,5,1,target,ultimate,"""Acabo de comprar aquest llum"" —va il·luminar content.",illuminar,1,,,,,,,,,,,,,,,,,,,,,,,
,,,,,,,,,,aoa302,02/21/2023_18h51.29.593,catalan_exp2,2022.1.4,Win32,60.17209218,,,space,16.5156,0,3,3,3,1,target,ultimate,"""El president de l'estat està malalt"" —va disseminar prematura.",disseminar,1,,,,,,,,,,,,,,,,,,,,,,,
,,,,,,,,,,aoa302,02/21/2023_18h51.29.593,catalan_exp2,2022.1.4,Win32,60.17209218,,,space,6.3894,0,4,4,6,1,target,penultimate,"""Confirmin la cita per demà"" —les encamina tímida.",encaminar,1,,,,,,,,,,,,,,,,,,,,,,,
,,,,,,,,,,aoa302,02/21/2023_18h51.29.593,catalan_exp2,2022.1.4,Win32,60.17209218,,,space,6.2932,0,5,5,7,1,target,ultimate,"""És culpa teva"" —li va recriminar seriosa.",recriminar,1,,,,,,,,,,,,,,,,,,,,,,,
,,,,,,,,,,aoa302,02/21/2023_18h51.29.593,catalan_exp2,2022.1.4,Win32,60.17209218,,,space,6.9689,0,6,6,2,1,target,penultimate,"""Aquest no és el meu número de telèfon"" —la descamina complagut.",descaminar,1,,,,,,,,,,,,,,,,,,,,,,,
,,,,,,,,,,aoa302,02/21/2023_18h51.29.593,catalan_exp2,2022.1.4,Win32,60.17209218,,,space,7.9889,0,7,7,11,1,target,ultimate,"""Van entrar sense demanar permís"" —les va incriminar confiat.",incriminar,1,,,,,,,,,,,,,,,,,,,,,,,
,,,,,,,,,,aoa302,02/21/2023_18h51.29.593,catalan_exp2,2022.1.4,Win32,60.17209218,,,space,7.3687,0,8,8,0,1,target,penultimate,"""No m'agrada el te de camamilla"" —abomina plena.",abominar,1,,,,,,,,,,,,,,,,,,,,,,,
,,,,,,,,,,aoa302,02/21/2023_18h51.29.593,catalan_exp2,2022.1.4,Win32,60.17209218,,,space,11.2797,0,9,9,4,1,target,penultimate,"""Escriguin la resposta"" —els examina clarament.",examinar,1,,,,,,,,,,,,,,,,,,,,,,,
,,,,,,,,,,aoa302,02/21/2023_18h51.29.593,catalan_exp2,2022.1.4,Win32,60.17209218,,,space,7.2968,0,10,10,9,1,target,ultimate,"""No puc cuinar sense cremar el menjar"" —es va desanimar seriós.",desanimar,1,,,,,,,,,,,,,,,,,,,,,,,
,,,,,,,,,,aoa302,02/21/2023_18h51.29.593,catalan_exp2,2022.1.4,Win32,60.17209218,,,space,26.0293,0,11,11,12,1,target,penultimate,"""No hi haurà més bestioles"" —extermina complaguda.",exterminar,1,,,,,,,,,,,,,,,,,,,,,,,
,,,,,,,,,,aoa302,02/21/2023_18h51.29.593,catalan_exp2,2022.1.4,Win32,60.17209218,,,space,7.9282,0,12,12,10,1,target,penultimate,"""No són necessaris"" —elimina segura.",eliminar,1,,,,,,,,,,,,,,,,,,,,,,,
,,,,,,,,,,aoa302,02/21/2023_18h51.29.593,catalan_exp2,2022.1.4,Win32,60.17209218,,,space,5.5787,0,13,13,8,1,target,penultimate,"""Aquest té menys sucre"" —discrimina tímid.",discriminar,1,,,,,,,,,,,,,,,,,,,,,,,
,,,,,,,,,,aoa302,02/21/2023_18h51.29.593,catalan_exp2,2022.1.4,Win32,60.17209218,,,,,,,,,,,,,,,0,1,1,0,1,main_trial_block1.xlsx,,,,,,,,,,,,,,,,,
,,,,,,,,,,aoa302,02/21/2023_18h51.29.593,catalan_exp2,2022.1.4,Win32,60.17209218,,,,,,,,,,,,,,,,,,,,,space,25.3723,0,0,0,0,1,,,,,,,,,,
,,,,,,,,,,aoa302,02/21/2023_18h51.29.593,catalan_exp2,2022.1.4,Win32,60.17209218,,,space,6.4703,0,0,0,3,1,target,ultimate,"""El president de l'estat està malalt"" —va disseminar prematura.",disseminar,1,,,,,,,,,,,,,,,,,,,,,,,
,,,,,,,,,,aoa302,02/21/2023_18h51.29.593,catalan_exp2,2022.1.4,Win32,60.17209218,,,space,5.3069,0,1,1,7,1,target,ultimate,"""És culpa teva"" —li va recriminar seriosa.",recriminar,1,,,,,,,,,,,,,,,,,,,,,,,
,,,,,,,,,,aoa302,02/21/2023_18h51.29.593,catalan_exp2,2022.1.4,Win32,60.17209218,,,space,6.5543,0,2,2,0,1,target,penultimate,"""No m'agrada el te de camamilla"" —abomina plena.",abominar,1,,,,,,,,,,,,,,,,,,,,,,,
,,,,,,,,,,aoa302,02/21/2023_18h51.29.593,catalan_exp2,2022.1.4,Win32,60.17209218,,,space,3.967,0,3,3,10,1,target,penultimate,"""No són necessaris"" —elimina segura.",eliminar,1,,,,,,,,,,,,,,,,,,,,,,,
,,,,,,,,,,aoa302,02/21/2023_18h51.29.593,catalan_exp2,2022.1.4,Win32,60.17209218,,,space,9.6111,0,4,4,9,1,target,ultimate,"""No puc cuinar sense cremar el menjar"" —es va desanimar seriós.",desanimar,1,,,,,,,,,,,,,,,,,,,,,,,
,,,,,,,,,,aoa302,02/21/2023_18h51.29.593,catalan_exp2,2022.1.4,Win32,60.17209218,,,space,5.9581,0,5,5,12,1,target,penultimate,"""No hi haurà més bestioles"" —extermina complaguda.",exterminar,1,,,,,,,,,,,,,,,,,,,,,,,
,,,,,,,,,,aoa302,02/21/2023_18h51.29.593,catalan_exp2,2022.1.4,Win32,60.17209218,,,space,10.997,0,6,6,11,1,target,ultimate,"""Van entrar sense demanar permís"" —les va incriminar confiat.",incriminar,1,,,,,,,,,,,,,,,,,,,,,,,
,,,,,,,,,,aoa302,02/21/2023_18h51.29.593,catalan_exp2,2022.1.4,Win32,60.17209218,,,space,7.1213,0,7,7,4,1,target,penultimate,"""Escriguin la resposta"" —els examina clarament.",examinar,1,,,,,,,,,,,,,,,,,,,,,,,
,,,,,,,,,,aoa302,02/21/2023_18h51.29.593,catalan_exp2,2022.1.4,Win32,60.17209218,,,space,6.5169,0,8,8,6,1,target,penultimate,"""Confirmin la cita per demà"" —les encamina tímida.",encaminar,1,,,,,,,,,,,,,,,,,,,,,,,
,,,,,,,,,,aoa302,02/21/2023_18h51.29.593,catalan_exp2,2022.1.4,Win32,60.17209218,,,space,7.4946,0,9,9,1,1,target,ultimate,"""Amb la pluja el vent és molt fort"" —va determinar complaguda.",determinar,1,,,,,,,,,,,,,,,,,,,,,,,
,,,,,,,,,,aoa302,02/21/2023_18h51.29.593,catalan_exp2,2022.1.4,Win32,60.17209218,,,space,5.8714,0,10,10,13,1,target,ultimate,"""Retrat d'un home trist"" —va denominar concret.",denominar,1,,,,,,,,,,,,,,,,,,,,,,,
,,,,,,,,,,aoa302,02/21/2023_18h51.29.593,catalan_exp2,2022.1.4,Win32,60.17209218,,,space,6.2082,0,11,11,2,1,target,penultimate,"""Aquest no és el meu número de telèfon"" —la descamina complagut.",descaminar,1,,,,,,,,,,,,,,,,,,,,,,,
,,,,,,,,,,aoa302,02/21/2023_18h51.29.593,catalan_exp2,2022.1.4,Win32,60.17209218,,,space,5.2274,0,12,12,8,1,target,penultimate,"""Aquest té menys sucre"" —discrimina tímid.",discriminar,1,,,,,,,,,,,,,,,,,,,,,,,
,,,,,,,,,,aoa302,02/21/2023_18h51.29.593,catalan_exp2,2022.1.4,Win32,60.17209218,,,space,6.6248,0,13,13,5,1,target,ultimate,"""Acabo de comprar aquest llum"" —va il·luminar content.",illuminar,1,,,,,,,,,,,,,,,,,,,,,,,
,,,,,,,,,,aoa302,02/21/2023_18h51.29.593,catalan_exp2,2022.1.4,Win32,60.17209218,,,,,,,,,,,,,,,0,0,0,0,1,main_trial_block1.xlsx,,,,,,,,,,,,,,,,,
,,,,,,,,,,aoa302,02/21/2023_18h51.29.593,catalan_exp2,2022.1.4,Win32,60.17209218,,,space,5.8492,0,0,0,2,1,target,ultimate,"""Aquest és el camí més curt"" —la va descaminar complagut.",descaminar,2,,,,,,,,,,,,,,,,,,,,,,,
,,,,,,,,,,aoa302,02/21/2023_18h51.29.593,catalan_exp2,2022.1.4,Win32,60.17209218,,,space,6.5738,0,1,1,0,1,target,ultimate,"""No m'agraden gens les curses de braus"" —va abominar plena.",abominar,2,,,,,,,,,,,,,,,,,,,,,,,
,,,,,,,,,,aoa302,02/21/2023_18h51.29.593,catalan_exp2,2022.1.4,Win32,60.17209218,,,space,4.7344,0,2,2,8,1,target,ultimate,"""Aquest és més fort"" —va discriminar tímid.",discriminar,2,,,,,,,,,,,,,,,,,,,,,,,
,,,,,,,,,,aoa302,02/21/2023_18h51.29.593,catalan_exp2,2022.1.4,Win32,60.17209218,,,space,7.2187,0,3,3,9,1,target,penultimate,"""No passaré mai l'examen"" —es desanima seriós.",desanimar,2,,,,,,,,,,,,,,,,,,,,,,,
,,,,,,,,,,aoa302,02/21/2023_18h51.29.593,catalan_exp2,2022.1.4,Win32,60.17209218,,,space,7.4284,0,4,4,3,1,target,penultimate,"""La senyora Martí renuncia al seu càrrec"" —dissemina prematura.",disseminar,2,,,,,,,,,,,,,,,,,,,,,,,
,,,,,,,,,,aoa302,02/21/2023_18h51.29.593,catalan_exp2,2022.1.4,Win32,60.17209218,,,space,8.5174,0,5,5,6,1,target,ultimate,"""Llegiu aquests articles"" —les va encaminar tímida.",encaminar,2,,,,,,,,,,,,,,,,,,,,,,,
,,,,,,,,,,aoa302,02/21/2023_18h51.29.593,catalan_exp2,2022.1.4,Win32,60.17209218,,,space,6.3058,0,6,6,1,1,target,penultimate,"""La massa de l'àtom és mesurable"" —determina complaguda.",determinar,2,,,,,,,,,,,,,,,,,,,,,,,
,,,,,,,,,,aoa302,02/21/2023_18h51.29.593,catalan_exp2,2022.1.4,Win32,60.17209218,,,space,6.4856,0,7,7,13,1,target,penultimate,"""Aquest gen es diu beta"" —denomina concret.",denominar,2,,,,,,,,,,,,,,,,,,,,,,,
,,,,,,,,,,aoa302,02/21/2023_18h51.29.593,catalan_exp2,2022.1.4,Win32,60.17209218,,,space,6.3174,0,8,8,7,1,target,penultimate,"""No m'agrada que em truquis"" —li recrimina seriosa.",recriminar,2,,,,,,,,,,,,,,,,,,,,,,,
,,,,,,,,,,aoa302,02/21/2023_18h51.29.593,catalan_exp2,2022.1.4,Win32,60.17209218,,,space,6.2887,0,9,9,11,1,target,penultimate,"""Vostès són les culpables"" —les incrimina confiat.",incriminar,2,,,,,,,,,,,,,,,,,,,,,,,
,,,,,,,,,,aoa302,02/21/2023_18h51.29.593,catalan_exp2,2022.1.4,Win32,60.17209218,,,space,5.5855,0,10,10,10,1,target,ultimate,"""Érem a casa a l'hora del crim"" —va eliminar segura.",eliminar,2,,,,,,,,,,,,,,,,,,,,,,,
,,,,,,,,,,aoa302,02/21/2023_18h51.29.593,catalan_exp2,2022.1.4,Win32,60.17209218,,,space,6.2086,0,11,11,12,1,target,ultimate,"""Aquest verí va molt bé"" —va exterminar complaguda.",exterminar,2,,,,,,,,,,,,,,,,,,,,,,,
,,,,,,,,,,aoa302,02/21/2023_18h51.29.593,catalan_exp2,2022.1.4,Win32,60.17209218,,,space,4.9652,0,12,12,5,1,target,penultimate,"""Bon Nadal a tots"" —il·lumina content.",illuminar,2,,,,,,,,,,,,,,,,,,,,,,,
,,,,,,,,,,aoa302,02/21/2023_18h51.29.593,catalan_exp2,2022.1.4,Win32,60.17209218,,,space,6.3101,0,13,13,4,1,target,ultimate,"""Facin aquesta equació"" —els va examinar clarament.",examinar,2,,,,,,,,,,,,,,,,,,,,,,,
,,,,,,,,,,aoa302,02/21/2023_18h51.29.593,catalan_exp2,2022.1.4,Win32,60.17209218,,,,,,,,,,,,,,,0,1,1,1,1,main_trial_block2.xlsx,,,,,,,,,,,,,,,,,
,,,,,,,,,,aoa302,02/21/2023_18h51.29.593,catalan_exp2,2022.1.4,Win32,60.17209218,,,,,,,,,,,,,,,,,,,,,space,13.6993,1,0,1,0,1,,,,,,,,,,
,,,,,,,,,,aoa302,02/21/2023_18h51.29.593,catalan_exp2,2022.1.4,Win32,60.17209218,,,space,5.2301,,,,,,target,penultimate,"""Vostès són les culpables"" —les incrimina confiat.",incriminar,2,,,,,,,,,,,,,,0,0,0,11,1,,,,,
,,,,,,,,,,aoa302,02/21/2023_18h51.29.593,catalan_exp2,2022.1.4,Win32,60.17209218,,,space,5.0833,,,,,,target,ultimate,"""Aquest és el camí més curt"" —la va descaminar complagut.",descaminar,2,,,,,,,,,,,,,,0,1,1,2,1,,,,,
,,,,,,,,,,aoa302,02/21/2023_18h51.29.593,catalan_exp2,2022.1.4,Win32,60.17209218,,,space,3.9031,,,,,,target,ultimate,"""Aquest és més fort"" —va discriminar tímid.",discriminar,2,,,,,,,,,,,,,,0,2,2,8,1,,,,,
,,,,,,,,,,aoa302,02/21/2023_18h51.29.593,catalan_exp2,2022.1.4,Win32,60.17209218,,,space,15.3008,,,,,,target,penultimate,"""Aquest gen es diu beta"" —denomina concret.",denominar,2,,,,,,,,,,,,,,0,3,3,13,1,,,,,
,,,,,,,,,,aoa302,02/21/2023_18h51.29.593,catalan_exp2,2022.1.4,Win32,60.17209218,,,space,19.1719,,,,,,target,ultimate,"""Facin aquesta equació"" —els va examinar clarament.",examinar,2,,,,,,,,,,,,,,0,4,4,4,1,,,,,
,,,,,,,,,,aoa302,02/21/2023_18h51.29.593,catalan_exp2,2022.1.4,Win32,60.17209218,,,space,4.7183,,,,,,target,penultimate,"""No m'agrada que em truquis"" —li recrimina seriosa.",recriminar,2,,,,,,,,,,,,,,0,5,5,7,1,,,,,
,,,,,,,,,,aoa302,02/21/2023_18h51.29.593,catalan_exp2,2022.1.4,Win32,60.17209218,,,space,7.1819,,,,,,target,ultimate,"""No m'agraden gens les curses de braus"" —va abominar plena.",abominar,2,,,,,,,,,,,,,,0,6,6,0,1,,,,,
,,,,,,,,,,aoa302,02/21/2023_18h51.29.593,catalan_exp2,2022.1.4,Win32,60.17209218,,,space,4.4848,,,,,,target,penultimate,"""Bon Nadal a tots"" —il·lumina content.",illuminar,2,,,,,,,,,,,,,,0,7,7,5,1,,,,,
,,,,,,,,,,aoa302,02/21/2023_18h51.29.593,catalan_exp2,2022.1.4,Win32,60.17209218,,,space,5.6007,,,,,,target,penultimate,"""No passaré mai l'examen"" —es desanima seriós.",desanimar,2,,,,,,,,,,,,,,0,8,8,9,1,,,,,
,,,,,,,,,,aoa302,02/21/2023_18h51.29.593,catalan_exp2,2022.1.4,Win32,60.17209218,,,space,6.3312,,,,,,target,ultimate,"""Llegiu aquests articles"" —les va encaminar tímida.",encaminar,2,,,,,,,,,,,,,,0,9,9,6,1,,,,,
,,,,,,,,,,aoa302,02/21/2023_18h51.29.593,catalan_exp2,2022.1.4,Win32,60.17209218,,,space,5.2077,,,,,,target,penultimate,"""La massa de l'àtom és mesurable"" —determina complaguda.",determinar,2,,,,,,,,,,,,,,0,10,10,1,1,,,,,
,,,,,,,,,,aoa302,02/21/2023_18h51.29.593,catalan_exp2,2022.1.4,Win32,60.17209218,,,space,6.0528,,,,,,target,penultimate,"""La senyora Martí renuncia al seu càrrec"" —dissemina prematura.",disseminar,2,,,,,,,,,,,,,,0,11,11,3,1,,,,,
,,,,,,,,,,aoa302,02/21/2023_18h51.29.593,catalan_exp2,2022.1.4,Win32,60.17209218,,,space,5.9474,,,,,,target,ultimate,"""Aquest verí va molt bé"" —va exterminar complaguda.",exterminar,2,,,,,,,,,,,,,,0,12,12,12,1,,,,,
,,,,,,,,,,aoa302,02/21/2023_18h51.29.593,catalan_exp2,2022.1.4,Win32,60.17209218,,,space,5.3458,,,,,,target,ultimate,"""Érem a casa a l'hora del crim"" —va eliminar segura.",eliminar,2,,,,,,,,,,,,,,0,13,13,10,1,,,,,
,,,,,,,,,,aoa302,02/21/2023_18h51.29.593,catalan_exp2,2022.1.4,Win32,60.17209218,,,,,,,,,,,,,,,,,,,,main_trial_block2.xlsx,,,,,,,,,,,,,0,0,0,1,1
,,,,,,,,,,aoa302,02/21/2023_18h51.29.593,catalan_exp2,2022.1.4,Win32,60.17209218,,,space,6.8618,,,,,,target,penultimate,"""Aquest no és el meu número de telèfon"" —la descamina complagut.",descaminar,1,,,,,,,,,,,,,,0,0,0,2,1,,,,,
,,,,,,,,,,aoa302,02/21/2023_18h51.29.593,catalan_exp2,2022.1.4,Win32,60.17209218,,,space,7.5107,,,,,,target,ultimate,"""No puc cuinar sense cremar el menjar"" —es va desanimar seriós.",desanimar,1,,,,,,,,,,,,,,0,1,1,9,1,,,,,
,,,,,,,,,,aoa302,02/21/2023_18h51.29.593,catalan_exp2,2022.1.4,Win32,60.17209218,,,space,5.6506,,,,,,target,penultimate,"""Confirmin la cita per demà"" —les encamina tímida.",encaminar,1,,,,,,,,,,,,,,0,2,2,6,1,,,,,
,,,,,,,,,,aoa302,02/21/2023_18h51.29.593,catalan_exp2,2022.1.4,Win32,60.17209218,,,space,5.77,,,,,,target,penultimate,"""No m'agrada el te de camamilla"" —abomina plena.",abominar,1,,,,,,,,,,,,,,0,3,3,0,1,,,,,
,,,,,,,,,,aoa302,02/21/2023_18h51.29.593,catalan_exp2,2022.1.4,Win32,60.17209218,,,space,5.3782,,,,,,target,ultimate,"""Amb la pluja el vent és molt fort"" —va determinar complaguda.",determinar,1,,,,,,,,,,,,,,0,4,4,1,1,,,,,
,,,,,,,,,,aoa302,02/21/2023_18h51.29.593,catalan_exp2,2022.1.4,Win32,60.17209218,,,space,5.07,,,,,,target,penultimate,"""No hi haurà més bestioles"" —extermina complaguda.",exterminar,1,,,,,,,,,,,,,,0,5,5,12,1,,,,,
,,,,,,,,,,aoa302,02/21/2023_18h51.29.593,catalan_exp2,2022.1.4,Win32,60.17209218,,,space,6.3883,,,,,,target,ultimate,"""El president de l'estat està malalt"" —va disseminar prematura.",disseminar,1,,,,,,,,,,,,,,0,6,6,3,1,,,,,
,,,,,,,,,,aoa302,02/21/2023_18h51.29.593,catalan_exp2,2022.1.4,Win32,60.17209218,,,space,4.9082,,,,,,target,penultimate,"""Aquest té menys sucre"" —discrimina tímid.",discriminar,1,,,,,,,,,,,,,,0,7,7,8,1,,,,,
,,,,,,,,,,aoa302,02/21/2023_18h51.29.593,catalan_exp2,2022.1.4,Win32,60.17209218,,,space,7.2655,,,,,,target,penultimate,"""Escriguin la resposta"" —els examina clarament.",examinar,1,,,,,,,,,,,,,,0,8,8,4,1,,,,,
,,,,,,,,,,aoa302,02/21/2023_18h51.29.593,catalan_exp2,2022.1.4,Win32,60.17209218,,,space,6.4134,,,,,,target,ultimate,"""Retrat d'un home trist"" —va denominar concret.",denominar,1,,,,,,,,,,,,,,0,9,9,13,1,,,,,
,,,,,,,,,,aoa302,02/21/2023_18h51.29.593,catalan_exp2,2022.1.4,Win32,60.17209218,,,space,4.8355,,,,,,target,penultimate,"""No són necessaris"" —elimina segura.",eliminar,1,,,,,,,,,,,,,,0,10,10,10,1,,,,,
,,,,,,,,,,aoa302,02/21/2023_18h51.29.593,catalan_exp2,2022.1.4,Win32,60.17209218,,,space,5.273,,,,,,target,ultimate,"""És culpa teva"" —li va recriminar seriosa.",recriminar,1,,,,,,,,,,,,,,0,11,11,7,1,,,,,
,,,,,,,,,,aoa302,02/21/2023_18h51.29.593,catalan_exp2,2022.1.4,Win32,60.17209218,,,space,6.1744,,,,,,target,ultimate,"""Acabo de comprar aquest llum"" —va il·luminar content.",illuminar,1,,,,,,,,,,,,,,0,12,12,5,1,,,,,
,,,,,,,,,,aoa302,02/21/2023_18h51.29.593,catalan_exp2,2022.1.4,Win32,60.17209218,,,space,8.4909,,,,,,target,ultimate,"""Van entrar sense demanar permís"" —les va incriminar confiat.",incriminar,1,,,,,,,,,,,,,,0,13,13,11,1,,,,,
,,,,,,,,,,aoa302,02/21/2023_18h51.29.593,catalan_exp2,2022.1.4,Win32,60.17209218,,,,,,,,,,,,,,,,,,,,main_trial_block1.xlsx,,,,,,,,,,,,,0,1,1,0,1
