key_resp.keys,key_resp.rt,key_resp_2.keys,key_resp_2.rt,trials_2.thisRepN,trials_2.thisTrialN,trials_2.thisN,trials_2.thisIndex,trials_2.ran,trialspanish,participant ID,date,expName,psychopyVersion,OS,frameRate,key_resp_3.keys,key_resp_3.rt,key_resp_4.keys,key_resp_4.rt,trials_randomizer.thisRepN,trials_randomizer.thisTrialN,trials_randomizer.thisN,trials_randomizer.thisIndex,trials_randomizer.ran,fillertarget,stress,wordspanish,verbspanish,rand_12,block_randomizer.thisRepN,block_randomizer.thisTrialN,block_randomizer.thisN,block_randomizer.thisIndex,block_randomizer.ran,condsFile,key_resp_5.keys,key_resp_5.rt,mainTrialReps.thisRepN,mainTrialReps.thisTrialN,mainTrialReps.thisN,mainTrialReps.thisIndex,mainTrialReps.ran,trials_randomizer2.thisRepN,trials_randomizer2.thisTrialN,trials_randomizer2.thisN,trials_randomizer2.thisIndex,trials_randomizer2.ran,block_randomizer2.thisRepN,block_randomizer2.thisTrialN,block_randomizer2.thisN,block_randomizer2.thisIndex,block_randomizer2.ran
space,1578.1241,space,5.3419,0,0,0,3,1,"""Te quiero mucho"" —suspiró contenta Teresa.",arl041,03-14-2023_18h57.14.225,spanish_exp2,2022.1.4,Win32,60.06727535,,,,,,,,,,,,,,,,,,,,,,,,,,,,,,,,,,,,,
,,space,4.8265,0,1,1,1,1,"""Depende del clima"" —respondió claramente.",arl041,03-14-2023_18h57.14.225,spanish_exp2,2022.1.4,Win32,60.06727535,,,,,,,,,,,,,,,,,,,,,,,,,,,,,,,,,,,,,
,,space,4.9176,0,2,2,2,1,"""Me gustaría un café"" —pienso complacido.",arl041,03-14-2023_18h57.14.225,spanish_exp2,2022.1.4,Win32,60.06727535,,,,,,,,,,,,,,,,,,,,,,,,,,,,,,,,,,,,,
,,space,6.0876,0,3,3,0,1,"""Le regaló una camiseta a su sobrino"" —digo contento.",arl041,03-14-2023_18h57.14.225,spanish_exp2,2022.1.4,Win32,60.06727535,,,,,,,,,,,,,,,,,,,,,,,,,,,,,,,,,,,,,
,,,,,,,,,,arl041,03-14-2023_18h57.14.225,spanish_exp2,2022.1.4,Win32,60.06727535,space,0.6726,space,6.3942,0,0,0,7,1,target,ultimate,"""Me robaron"" —les recriminó con intensidad.",recriminar,1,,,,,,,,,,,,,,,,,,,,,,,
,,,,,,,,,,arl041,03-14-2023_18h57.14.225,spanish_exp2,2022.1.4,Win32,60.06727535,,,space,5.6286,0,1,1,10,1,target,penultimate,"""No son necesarios"" —los elimino segura.",eliminar,1,,,,,,,,,,,,,,,,,,,,,,,
,,,,,,,,,,arl041,03-14-2023_18h57.14.225,spanish_exp2,2022.1.4,Win32,60.06727535,,,space,6.3572,0,2,2,2,1,target,penultimate,"""Este no es mi número de teléfono"" —la descamino complacido.",descaminar,1,,,,,,,,,,,,,,,,,,,,,,,
,,,,,,,,,,arl041,03-14-2023_18h57.14.225,spanish_exp2,2022.1.4,Win32,60.06727535,,,space,13.3776,0,3,3,12,1,target,penultimate,"""No habrá más cucarachas"" —extermino complacida.",exterminar,1,,,,,,,,,,,,,,,,,,,,,,,
,,,,,,,,,,arl041,03-14-2023_18h57.14.225,spanish_exp2,2022.1.4,Win32,60.06727535,,,space,8.8424,0,4,4,3,1,target,ultimate,"""El presidente del estado se encuentra enfermo"" —diseminó compungido.",diseminar,1,,,,,,,,,,,,,,,,,,,,,,,
,,,,,,,,,,arl041,03-14-2023_18h57.14.225,spanish_exp2,2022.1.4,Win32,60.06727535,,,space,5.4547,0,5,5,5,1,target,ultimate,"""Compré esta lámpara ayer"" —iluminó contenta.",iluminar,1,,,,,,,,,,,,,,,,,,,,,,,
,,,,,,,,,,arl041,03-14-2023_18h57.14.225,spanish_exp2,2022.1.4,Win32,60.06727535,,,space,5.9939,0,6,6,13,1,target,ultimate,"""Retrato de un hombre triste"" —lo denominó complacido. ",denominar,1,,,,,,,,,,,,,,,,,,,,,,,
,,,,,,,,,,arl041,03-14-2023_18h57.14.225,spanish_exp2,2022.1.4,Win32,60.06727535,,,space,6.4509,0,7,7,1,1,target,ultimate,"""Con la lluvia el viento es muy fuerte"" —determinó complacida.",determinar,1,,,,,,,,,,,,,,,,,,,,,,,
,,,,,,,,,,arl041,03-14-2023_18h57.14.225,spanish_exp2,2022.1.4,Win32,60.06727535,,,space,6.2059,0,8,8,4,1,target,penultimate,"""Escriban la respuesta"" —los examino seriamente.",examinar,1,,,,,,,,,,,,,,,,,,,,,,,
,,,,,,,,,,arl041,03-14-2023_18h57.14.225,spanish_exp2,2022.1.4,Win32,60.06727535,,,space,6.1966,0,9,9,8,1,target,penultimate,"""Este tiene menos azúcar"" —discrimino tímida.",discriminar,1,,,,,,,,,,,,,,,,,,,,,,,
,,,,,,,,,,arl041,03-14-2023_18h57.14.225,spanish_exp2,2022.1.4,Win32,60.06727535,,,space,6.7217,0,10,10,9,1,target,ultimate,"""No puedo cocinar sin quemar la comida"" —me desanimó compungida.",desanimar,1,,,,,,,,,,,,,,,,,,,,,,,
,,,,,,,,,,arl041,03-14-2023_18h57.14.225,spanish_exp2,2022.1.4,Win32,60.06727535,,,space,6.5296,0,11,11,6,1,target,penultimate,"""Confirma la cita para mañana"" —le encamino con ilusión. ",encaminar,1,,,,,,,,,,,,,,,,,,,,,,,
,,,,,,,,,,arl041,03-14-2023_18h57.14.225,spanish_exp2,2022.1.4,Win32,60.06727535,,,space,6.1054,0,12,12,0,1,target,penultimate,"""No me gusta el té de manzanilla"" —abomino con certeza.",abominar,1,,,,,,,,,,,,,,,,,,,,,,,
,,,,,,,,,,arl041,03-14-2023_18h57.14.225,spanish_exp2,2022.1.4,Win32,60.06727535,,,space,5.7159,0,13,13,11,1,target,ultimate,"""Entraron sin pedir permiso"" —les incriminó seguro.",incriminar,1,,,,,,,,,,,,,,,,,,,,,,,
,,,,,,,,,,arl041,03-14-2023_18h57.14.225,spanish_exp2,2022.1.4,Win32,60.06727535,,,,,,,,,,,,,,,0,0,0,0,1,main_trial_block1.xlsx,,,,,,,,,,,,,,,,,
,,,,,,,,,,arl041,03-14-2023_18h57.14.225,spanish_exp2,2022.1.4,Win32,60.06727535,,,space,5.5821,0,0,0,13,1,target,penultimate,"""Se llamará beta"" —lo denomino complacido.",denominar,2,,,,,,,,,,,,,,,,,,,,,,,
,,,,,,,,,,arl041,03-14-2023_18h57.14.225,spanish_exp2,2022.1.4,Win32,60.06727535,,,space,5.1471,0,1,1,5,1,target,penultimate,"""Estas son las luces nuevas"" —ilumino contenta.",iluminar,2,,,,,,,,,,,,,,,,,,,,,,,
,,,,,,,,,,arl041,03-14-2023_18h57.14.225,spanish_exp2,2022.1.4,Win32,60.06727535,,,space,5.9185,0,2,2,2,1,target,ultimate,"""Este es el camino más corto"" —la descaminó complacido.",descaminar,2,,,,,,,,,,,,,,,,,,,,,,,
,,,,,,,,,,arl041,03-14-2023_18h57.14.225,spanish_exp2,2022.1.4,Win32,60.06727535,,,space,4.9649,0,3,3,11,1,target,penultimate,"""Los Osvald, culpables"" —les incrimino seguro.",incriminar,2,,,,,,,,,,,,,,,,,,,,,,,
,,,,,,,,,,arl041,03-14-2023_18h57.14.225,spanish_exp2,2022.1.4,Win32,60.06727535,,,space,4.8613,0,4,4,8,1,target,ultimate,"""Este es más fuerte"" —discriminó tímida.",discriminar,2,,,,,,,,,,,,,,,,,,,,,,,
,,,,,,,,,,arl041,03-14-2023_18h57.14.225,spanish_exp2,2022.1.4,Win32,60.06727535,,,space,4.896,0,5,5,10,1,target,ultimate,"""Tarjeta roja"" —los eliminó segura.",eliminar,2,,,,,,,,,,,,,,,,,,,,,,,
,,,,,,,,,,arl041,03-14-2023_18h57.14.225,spanish_exp2,2022.1.4,Win32,60.06727535,,,space,7.4291,0,6,6,12,1,target,ultimate,"""Este insecticida es muy eficaz"" —exterminó complacida.",exterminar,2,,,,,,,,,,,,,,,,,,,,,,,
,,,,,,,,,,arl041,03-14-2023_18h57.14.225,spanish_exp2,2022.1.4,Win32,60.06727535,,,space,6.2507,0,7,7,1,1,target,penultimate,"""La masa del átomo es medible"" —determino complacida.",determinar,2,,,,,,,,,,,,,,,,,,,,,,,
,,,,,,,,,,arl041,03-14-2023_18h57.14.225,spanish_exp2,2022.1.4,Win32,60.06727535,,,space,6.8168,0,8,8,3,1,target,penultimate,"""La directora Pérez renuncia a su cargo"" —disemino compungido.",diseminar,2,,,,,,,,,,,,,,,,,,,,,,,
,,,,,,,,,,arl041,03-14-2023_18h57.14.225,spanish_exp2,2022.1.4,Win32,60.06727535,,,space,6.6867,0,9,9,9,1,target,penultimate,"""No puedo estudiar matemáticas"" —me desanimo compungida.",desanimar,2,,,,,,,,,,,,,,,,,,,,,,,
,,,,,,,,,,arl041,03-14-2023_18h57.14.225,spanish_exp2,2022.1.4,Win32,60.06727535,,,space,5.8885,0,10,10,6,1,target,ultimate,"""Lee estos artículos"" —le encaminó con ilusión.",encaminar,2,,,,,,,,,,,,,,,,,,,,,,,
,,,,,,,,,,arl041,03-14-2023_18h57.14.225,spanish_exp2,2022.1.4,Win32,60.06727535,,,space,6.9245,0,11,11,7,1,target,penultimate,"""No me gusta su conducta"" —les recrimino con intensidad.",recriminar,2,,,,,,,,,,,,,,,,,,,,,,,
,,,,,,,,,,arl041,03-14-2023_18h57.14.225,spanish_exp2,2022.1.4,Win32,60.06727535,,,space,5.7787,0,12,12,0,1,target,ultimate,"""No me gustan las corridas"" —abominó con certeza.",abominar,2,,,,,,,,,,,,,,,,,,,,,,,
,,,,,,,,,,arl041,03-14-2023_18h57.14.225,spanish_exp2,2022.1.4,Win32,60.06727535,,,space,6.4913,0,13,13,4,1,target,ultimate,"""Desarrollen esta ecuación"" —los examinó seriamente.",examinar,2,,,,,,,,,,,,,,,,,,,,,,,
,,,,,,,,,,arl041,03-14-2023_18h57.14.225,spanish_exp2,2022.1.4,Win32,60.06727535,,,,,,,,,,,,,,,0,1,1,1,1,main_trial_block2.xlsx,,,,,,,,,,,,,,,,,
,,,,,,,,,,arl041,03-14-2023_18h57.14.225,spanish_exp2,2022.1.4,Win32,60.06727535,,,,,,,,,,,,,,,,,,,,,space,6.9617,0,0,0,0,1,,,,,,,,,,
,,,,,,,,,,arl041,03-14-2023_18h57.14.225,spanish_exp2,2022.1.4,Win32,60.06727535,,,space,5.4391,0,0,0,4,1,target,penultimate,"""Escriban la respuesta"" —los examino seriamente.",examinar,1,,,,,,,,,,,,,,,,,,,,,,,
,,,,,,,,,,arl041,03-14-2023_18h57.14.225,spanish_exp2,2022.1.4,Win32,60.06727535,,,space,4.9128,0,1,1,7,1,target,ultimate,"""Me robaron"" —les recriminó con intensidad.",recriminar,1,,,,,,,,,,,,,,,,,,,,,,,
,,,,,,,,,,arl041,03-14-2023_18h57.14.225,spanish_exp2,2022.1.4,Win32,60.06727535,,,space,5.5861,0,2,2,8,1,target,penultimate,"""Este tiene menos azúcar"" —discrimino tímida.",discriminar,1,,,,,,,,,,,,,,,,,,,,,,,
,,,,,,,,,,arl041,03-14-2023_18h57.14.225,spanish_exp2,2022.1.4,Win32,60.06727535,,,space,4.9483,0,3,3,5,1,target,ultimate,"""Compré esta lámpara ayer"" —iluminó contenta.",iluminar,1,,,,,,,,,,,,,,,,,,,,,,,
,,,,,,,,,,arl041,03-14-2023_18h57.14.225,spanish_exp2,2022.1.4,Win32,60.06727535,,,space,7.0708,0,4,4,9,1,target,ultimate,"""No puedo cocinar sin quemar la comida"" —me desanimó compungida.",desanimar,1,,,,,,,,,,,,,,,,,,,,,,,
,,,,,,,,,,arl041,03-14-2023_18h57.14.225,spanish_exp2,2022.1.4,Win32,60.06727535,,,space,4.7444,0,5,5,10,1,target,penultimate,"""No son necesarios"" —los elimino segura.",eliminar,1,,,,,,,,,,,,,,,,,,,,,,,
,,,,,,,,,,arl041,03-14-2023_18h57.14.225,spanish_exp2,2022.1.4,Win32,60.06727535,,,space,6.3923,0,6,6,0,1,target,penultimate,"""No me gusta el té de manzanilla"" —abomino con certeza.",abominar,1,,,,,,,,,,,,,,,,,,,,,,,
,,,,,,,,,,arl041,03-14-2023_18h57.14.225,spanish_exp2,2022.1.4,Win32,60.06727535,,,space,5.8494,0,7,7,11,1,target,ultimate,"""Entraron sin pedir permiso"" —les incriminó seguro.",incriminar,1,,,,,,,,,,,,,,,,,,,,,,,
,,,,,,,,,,arl041,03-14-2023_18h57.14.225,spanish_exp2,2022.1.4,Win32,60.06727535,,,space,6.2296,0,8,8,1,1,target,ultimate,"""Con la lluvia el viento es muy fuerte"" —determinó complacida.",determinar,1,,,,,,,,,,,,,,,,,,,,,,,
,,,,,,,,,,arl041,03-14-2023_18h57.14.225,spanish_exp2,2022.1.4,Win32,60.06727535,,,space,5.4894,0,9,9,12,1,target,penultimate,"""No habrá más cucarachas"" —extermino complacida.",exterminar,1,,,,,,,,,,,,,,,,,,,,,,,
,,,,,,,,,,arl041,03-14-2023_18h57.14.225,spanish_exp2,2022.1.4,Win32,60.06727535,,,space,6.0612,0,10,10,6,1,target,penultimate,"""Confirma la cita para mañana"" —le encamino con ilusión. ",encaminar,1,,,,,,,,,,,,,,,,,,,,,,,
,,,,,,,,,,arl041,03-14-2023_18h57.14.225,spanish_exp2,2022.1.4,Win32,60.06727535,,,space,6.1777,0,11,11,2,1,target,penultimate,"""Este no es mi número de teléfono"" —la descamino complacido.",descaminar,1,,,,,,,,,,,,,,,,,,,,,,,
,,,,,,,,,,arl041,03-14-2023_18h57.14.225,spanish_exp2,2022.1.4,Win32,60.06727535,,,space,6.5156,0,12,12,3,1,target,ultimate,"""El presidente del estado se encuentra enfermo"" —diseminó compungido.",diseminar,1,,,,,,,,,,,,,,,,,,,,,,,
,,,,,,,,,,arl041,03-14-2023_18h57.14.225,spanish_exp2,2022.1.4,Win32,60.06727535,,,space,5.9616,0,13,13,13,1,target,ultimate,"""Retrato de un hombre triste"" —lo denominó complacido. ",denominar,1,,,,,,,,,,,,,,,,,,,,,,,
,,,,,,,,,,arl041,03-14-2023_18h57.14.225,spanish_exp2,2022.1.4,Win32,60.06727535,,,,,,,,,,,,,,,0,0,0,0,1,main_trial_block1.xlsx,,,,,,,,,,,,,,,,,
,,,,,,,,,,arl041,03-14-2023_18h57.14.225,spanish_exp2,2022.1.4,Win32,60.06727535,,,space,5.4823,0,0,0,5,1,target,penultimate,"""Estas son las luces nuevas"" —ilumino contenta.",iluminar,2,,,,,,,,,,,,,,,,,,,,,,,
,,,,,,,,,,arl041,03-14-2023_18h57.14.225,spanish_exp2,2022.1.4,Win32,60.06727535,,,space,6.1208,0,1,1,9,1,target,penultimate,"""No puedo estudiar matemáticas"" —me desanimo compungida.",desanimar,2,,,,,,,,,,,,,,,,,,,,,,,
,,,,,,,,,,arl041,03-14-2023_18h57.14.225,spanish_exp2,2022.1.4,Win32,60.06727535,,,space,5.1679,0,2,2,11,1,target,penultimate,"""Los Osvald, culpables"" —les incrimino seguro.",incriminar,2,,,,,,,,,,,,,,,,,,,,,,,
,,,,,,,,,,arl041,03-14-2023_18h57.14.225,spanish_exp2,2022.1.4,Win32,60.06727535,,,space,6.0219,0,3,3,1,1,target,penultimate,"""La masa del átomo es medible"" —determino complacida.",determinar,2,,,,,,,,,,,,,,,,,,,,,,,
,,,,,,,,,,arl041,03-14-2023_18h57.14.225,spanish_exp2,2022.1.4,Win32,60.06727535,,,space,4.5014,0,4,4,10,1,target,ultimate,"""Tarjeta roja"" —los eliminó segura.",eliminar,2,,,,,,,,,,,,,,,,,,,,,,,
,,,,,,,,,,arl041,03-14-2023_18h57.14.225,spanish_exp2,2022.1.4,Win32,60.06727535,,,space,5.9834,0,5,5,4,1,target,ultimate,"""Desarrollen esta ecuación"" —los examinó seriamente.",examinar,2,,,,,,,,,,,,,,,,,,,,,,,
,,,,,,,,,,arl041,03-14-2023_18h57.14.225,spanish_exp2,2022.1.4,Win32,60.06727535,,,space,6.462,0,6,6,3,1,target,penultimate,"""La directora Pérez renuncia a su cargo"" —disemino compungido.",diseminar,2,,,,,,,,,,,,,,,,,,,,,,,
,,,,,,,,,,arl041,03-14-2023_18h57.14.225,spanish_exp2,2022.1.4,Win32,60.06727535,,,space,6.099,0,7,7,6,1,target,ultimate,"""Lee estos artículos"" —le encaminó con ilusión.",encaminar,2,,,,,,,,,,,,,,,,,,,,,,,
,,,,,,,,,,arl041,03-14-2023_18h57.14.225,spanish_exp2,2022.1.4,Win32,60.06727535,,,space,6.8012,0,8,8,7,1,target,penultimate,"""No me gusta su conducta"" —les recrimino con intensidad.",recriminar,2,,,,,,,,,,,,,,,,,,,,,,,
,,,,,,,,,,arl041,03-14-2023_18h57.14.225,spanish_exp2,2022.1.4,Win32,60.06727535,,,space,4.854,0,9,9,8,1,target,ultimate,"""Este es más fuerte"" —discriminó tímida.",discriminar,2,,,,,,,,,,,,,,,,,,,,,,,
,,,,,,,,,,arl041,03-14-2023_18h57.14.225,spanish_exp2,2022.1.4,Win32,60.06727535,,,space,5.0697,0,10,10,13,1,target,penultimate,"""Se llamará beta"" —lo denomino complacido.",denominar,2,,,,,,,,,,,,,,,,,,,,,,,
,,,,,,,,,,arl041,03-14-2023_18h57.14.225,spanish_exp2,2022.1.4,Win32,60.06727535,,,space,5.9491,0,11,11,2,1,target,ultimate,"""Este es el camino más corto"" —la descaminó complacido.",descaminar,2,,,,,,,,,,,,,,,,,,,,,,,
,,,,,,,,,,arl041,03-14-2023_18h57.14.225,spanish_exp2,2022.1.4,Win32,60.06727535,,,space,6.074,0,12,12,0,1,target,ultimate,"""No me gustan las corridas"" —abominó con certeza.",abominar,2,,,,,,,,,,,,,,,,,,,,,,,
,,,,,,,,,,arl041,03-14-2023_18h57.14.225,spanish_exp2,2022.1.4,Win32,60.06727535,,,space,6.0353,0,13,13,12,1,target,ultimate,"""Este insecticida es muy eficaz"" —exterminó complacida.",exterminar,2,,,,,,,,,,,,,,,,,,,,,,,
,,,,,,,,,,arl041,03-14-2023_18h57.14.225,spanish_exp2,2022.1.4,Win32,60.06727535,,,,,,,,,,,,,,,0,1,1,1,1,main_trial_block2.xlsx,,,,,,,,,,,,,,,,,
,,,,,,,,,,arl041,03-14-2023_18h57.14.225,spanish_exp2,2022.1.4,Win32,60.06727535,,,,,,,,,,,,,,,,,,,,,space,6.6285,1,0,1,0,1,,,,,,,,,,
,,,,,,,,,,arl041,03-14-2023_18h57.14.225,spanish_exp2,2022.1.4,Win32,60.06727535,,,space,6.5595,,,,,,target,ultimate,"""Entraron sin pedir permiso"" —les incriminó seguro.",incriminar,1,,,,,,,,,,,,,,0,0,0,11,1,,,,,
,,,,,,,,,,arl041,03-14-2023_18h57.14.225,spanish_exp2,2022.1.4,Win32,60.06727535,,,space,5.4012,,,,,,target,ultimate,"""Compré esta lámpara ayer"" —iluminó contenta.",iluminar,1,,,,,,,,,,,,,,0,1,1,5,1,,,,,
,,,,,,,,,,arl041,03-14-2023_18h57.14.225,spanish_exp2,2022.1.4,Win32,60.06727535,,,space,5.7842,,,,,,target,penultimate,"""Confirma la cita para mañana"" —le encamino con ilusión. ",encaminar,1,,,,,,,,,,,,,,0,2,2,6,1,,,,,
,,,,,,,,,,arl041,03-14-2023_18h57.14.225,spanish_exp2,2022.1.4,Win32,60.06727535,,,space,6.3833,,,,,,target,ultimate,"""El presidente del estado se encuentra enfermo"" —diseminó compungido.",diseminar,1,,,,,,,,,,,,,,0,3,3,3,1,,,,,
,,,,,,,,,,arl041,03-14-2023_18h57.14.225,spanish_exp2,2022.1.4,Win32,60.06727535,,,space,5.5446,,,,,,target,penultimate,"""Este no es mi número de teléfono"" —la descamino complacido.",descaminar,1,,,,,,,,,,,,,,0,4,4,2,1,,,,,
,,,,,,,,,,arl041,03-14-2023_18h57.14.225,spanish_exp2,2022.1.4,Win32,60.06727535,,,space,5.7229,,,,,,target,penultimate,"""No me gusta el té de manzanilla"" —abomino con certeza.",abominar,1,,,,,,,,,,,,,,0,5,5,0,1,,,,,
,,,,,,,,,,arl041,03-14-2023_18h57.14.225,spanish_exp2,2022.1.4,Win32,60.06727535,,,space,6.9034,,,,,,target,penultimate,"""Escriban la respuesta"" —los examino seriamente.",examinar,1,,,,,,,,,,,,,,0,6,6,4,1,,,,,
,,,,,,,,,,arl041,03-14-2023_18h57.14.225,spanish_exp2,2022.1.4,Win32,60.06727535,,,space,5.5709,,,,,,target,ultimate,"""Retrato de un hombre triste"" —lo denominó complacido. ",denominar,1,,,,,,,,,,,,,,0,7,7,13,1,,,,,
,,,,,,,,,,arl041,03-14-2023_18h57.14.225,spanish_exp2,2022.1.4,Win32,60.06727535,,,space,4.9647,,,,,,target,ultimate,"""Me robaron"" —les recriminó con intensidad.",recriminar,1,,,,,,,,,,,,,,0,8,8,7,1,,,,,
,,,,,,,,,,arl041,03-14-2023_18h57.14.225,spanish_exp2,2022.1.4,Win32,60.06727535,,,space,4.7291,,,,,,target,penultimate,"""No son necesarios"" —los elimino segura.",eliminar,1,,,,,,,,,,,,,,0,9,9,10,1,,,,,
,,,,,,,,,,arl041,03-14-2023_18h57.14.225,spanish_exp2,2022.1.4,Win32,60.06727535,,,space,6.397,,,,,,target,ultimate,"""No puedo cocinar sin quemar la comida"" —me desanimó compungida.",desanimar,1,,,,,,,,,,,,,,0,10,10,9,1,,,,,
,,,,,,,,,,arl041,03-14-2023_18h57.14.225,spanish_exp2,2022.1.4,Win32,60.06727535,,,space,5.6529,,,,,,target,penultimate,"""No habrá más cucarachas"" —extermino complacida.",exterminar,1,,,,,,,,,,,,,,0,11,11,12,1,,,,,
,,,,,,,,,,arl041,03-14-2023_18h57.14.225,spanish_exp2,2022.1.4,Win32,60.06727535,,,space,6.7184,,,,,,target,penultimate,"""Este tiene menos azúcar"" —discrimino tímida.",discriminar,1,,,,,,,,,,,,,,0,12,12,8,1,,,,,
,,,,,,,,,,arl041,03-14-2023_18h57.14.225,spanish_exp2,2022.1.4,Win32,60.06727535,,,space,6.2751,,,,,,target,ultimate,"""Con la lluvia el viento es muy fuerte"" —determinó complacida.",determinar,1,,,,,,,,,,,,,,0,13,13,1,1,,,,,
,,,,,,,,,,arl041,03-14-2023_18h57.14.225,spanish_exp2,2022.1.4,Win32,60.06727535,,,,,,,,,,,,,,,,,,,,main_trial_block1.xlsx,,,,,,,,,,,,,0,0,0,0,1
,,,,,,,,,,arl041,03-14-2023_18h57.14.225,spanish_exp2,2022.1.4,Win32,60.06727535,,,space,5.8616,,,,,,target,ultimate,"""Este es el camino más corto"" —la descaminó complacido.",descaminar,2,,,,,,,,,,,,,,0,0,0,2,1,,,,,
,,,,,,,,,,arl041,03-14-2023_18h57.14.225,spanish_exp2,2022.1.4,Win32,60.06727535,,,space,5.4365,,,,,,target,penultimate,"""Se llamará beta"" —lo denomino complacido.",denominar,2,,,,,,,,,,,,,,0,1,1,13,1,,,,,
,,,,,,,,,,arl041,03-14-2023_18h57.14.225,spanish_exp2,2022.1.4,Win32,60.06727535,,,space,5.9176,,,,,,target,ultimate,"""Lee estos artículos"" —le encaminó con ilusión.",encaminar,2,,,,,,,,,,,,,,0,2,2,6,1,,,,,
,,,,,,,,,,arl041,03-14-2023_18h57.14.225,spanish_exp2,2022.1.4,Win32,60.06727535,,,space,5.9137,,,,,,target,penultimate,"""La directora Pérez renuncia a su cargo"" —disemino compungido.",diseminar,2,,,,,,,,,,,,,,0,3,3,3,1,,,,,
,,,,,,,,,,arl041,03-14-2023_18h57.14.225,spanish_exp2,2022.1.4,Win32,60.06727535,,,space,6.4714,,,,,,target,penultimate,"""Los Osvald, culpables"" —les incrimino seguro.",incriminar,2,,,,,,,,,,,,,,0,4,4,11,1,,,,,
,,,,,,,,,,arl041,03-14-2023_18h57.14.225,spanish_exp2,2022.1.4,Win32,60.06727535,,,space,5.7289,,,,,,target,penultimate,"""No puedo estudiar matemáticas"" —me desanimo compungida.",desanimar,2,,,,,,,,,,,,,,0,5,5,9,1,,,,,
,,,,,,,,,,arl041,03-14-2023_18h57.14.225,spanish_exp2,2022.1.4,Win32,60.06727535,,,space,5.5964,,,,,,target,penultimate,"""La masa del átomo es medible"" —determino complacida.",determinar,2,,,,,,,,,,,,,,0,6,6,1,1,,,,,
,,,,,,,,,,arl041,03-14-2023_18h57.14.225,spanish_exp2,2022.1.4,Win32,60.06727535,,,space,5.1819,,,,,,target,ultimate,"""Este es más fuerte"" —discriminó tímida.",discriminar,2,,,,,,,,,,,,,,0,7,7,8,1,,,,,
,,,,,,,,,,arl041,03-14-2023_18h57.14.225,spanish_exp2,2022.1.4,Win32,60.06727535,,,space,5.4711,,,,,,target,ultimate,"""No me gustan las corridas"" —abominó con certeza.",abominar,2,,,,,,,,,,,,,,0,8,8,0,1,,,,,
,,,,,,,,,,arl041,03-14-2023_18h57.14.225,spanish_exp2,2022.1.4,Win32,60.06727535,,,space,5.9534,,,,,,target,penultimate,"""No me gusta su conducta"" —les recrimino con intensidad.",recriminar,2,,,,,,,,,,,,,,0,9,9,7,1,,,,,
,,,,,,,,,,arl041,03-14-2023_18h57.14.225,spanish_exp2,2022.1.4,Win32,60.06727535,,,space,6.3609,,,,,,target,ultimate,"""Este insecticida es muy eficaz"" —exterminó complacida.",exterminar,2,,,,,,,,,,,,,,0,10,10,12,1,,,,,
,,,,,,,,,,arl041,03-14-2023_18h57.14.225,spanish_exp2,2022.1.4,Win32,60.06727535,,,space,5.1368,,,,,,target,penultimate,"""Estas son las luces nuevas"" —ilumino contenta.",iluminar,2,,,,,,,,,,,,,,0,11,11,5,1,,,,,
,,,,,,,,,,arl041,03-14-2023_18h57.14.225,spanish_exp2,2022.1.4,Win32,60.06727535,,,space,5.804,,,,,,target,ultimate,"""Desarrollen esta ecuación"" —los examinó seriamente.",examinar,2,,,,,,,,,,,,,,0,12,12,4,1,,,,,
,,,,,,,,,,arl041,03-14-2023_18h57.14.225,spanish_exp2,2022.1.4,Win32,60.06727535,,,space,4.5655,,,,,,target,ultimate,"""Tarjeta roja"" —los eliminó segura.",eliminar,2,,,,,,,,,,,,,,0,13,13,10,1,,,,,
,,,,,,,,,,arl041,03-14-2023_18h57.14.225,spanish_exp2,2022.1.4,Win32,60.06727535,,,,,,,,,,,,,,,,,,,,main_trial_block2.xlsx,,,,,,,,,,,,,0,1,1,1,1
