key_resp.keys,key_resp.rt,key_resp_2.keys,key_resp_2.rt,trials_2.thisRepN,trials_2.thisTrialN,trials_2.thisN,trials_2.thisIndex,trials_2.ran,trialspanish,participant ID,date,expName,psychopyVersion,OS,frameRate,key_resp_3.keys,key_resp_3.rt,key_resp_4.keys,key_resp_4.rt,trials_randomizer.thisRepN,trials_randomizer.thisTrialN,trials_randomizer.thisN,trials_randomizer.thisIndex,trials_randomizer.ran,fillertarget,stress,wordspanish,verbspanish,rand_12,block_randomizer.thisRepN,block_randomizer.thisTrialN,block_randomizer.thisN,block_randomizer.thisIndex,block_randomizer.ran,condsFile,key_resp_5.keys,key_resp_5.rt,mainTrialReps.thisRepN,mainTrialReps.thisTrialN,mainTrialReps.thisN,mainTrialReps.thisIndex,mainTrialReps.ran,trials_randomizer2.thisRepN,trials_randomizer2.thisTrialN,trials_randomizer2.thisN,trials_randomizer2.thisIndex,trials_randomizer2.ran,block_randomizer2.thisRepN,block_randomizer2.thisTrialN,block_randomizer2.thisN,block_randomizer2.thisIndex,block_randomizer2.ran
space,1285.5339,space,11.7359,0,0,0,0,1,"""Le regaló una camiseta a su sobrino"" —digo contento.",auj020,03-14-2023_16h30.06.729,spanish_exp2,2022.1.4,Win32,60.07449237,,,,,,,,,,,,,,,,,,,,,,,,,,,,,,,,,,,,,
,,space,4.5664,0,1,1,2,1,"""Me gustaría un café"" —pienso complacido.",auj020,03-14-2023_16h30.06.729,spanish_exp2,2022.1.4,Win32,60.07449237,,,,,,,,,,,,,,,,,,,,,,,,,,,,,,,,,,,,,
,,space,4.4263,0,2,2,3,1,"""Te quiero mucho"" —suspiró contenta Teresa.",auj020,03-14-2023_16h30.06.729,spanish_exp2,2022.1.4,Win32,60.07449237,,,,,,,,,,,,,,,,,,,,,,,,,,,,,,,,,,,,,
,,space,5.8201,0,3,3,1,1,"""Depende del clima"" —respondió claramente.",auj020,03-14-2023_16h30.06.729,spanish_exp2,2022.1.4,Win32,60.07449237,,,,,,,,,,,,,,,,,,,,,,,,,,,,,,,,,,,,,
,,,,,,,,,,auj020,03-14-2023_16h30.06.729,spanish_exp2,2022.1.4,Win32,60.07449237,space,0.4451,space,6.4464,0,0,0,5,1,target,ultimate,"""Compré esta lámpara ayer"" —iluminó contenta.",iluminar,1,,,,,,,,,,,,,,,,,,,,,,,
,,,,,,,,,,auj020,03-14-2023_16h30.06.729,spanish_exp2,2022.1.4,Win32,60.07449237,,,space,6.5991,0,1,1,1,1,target,ultimate,"""Con la lluvia el viento es muy fuerte"" —determinó complacida.",determinar,1,,,,,,,,,,,,,,,,,,,,,,,
,,,,,,,,,,auj020,03-14-2023_16h30.06.729,spanish_exp2,2022.1.4,Win32,60.07449237,,,space,7.0988,0,2,2,3,1,target,ultimate,"""El presidente del estado se encuentra enfermo"" —diseminó compungido.",diseminar,1,,,,,,,,,,,,,,,,,,,,,,,
,,,,,,,,,,auj020,03-14-2023_16h30.06.729,spanish_exp2,2022.1.4,Win32,60.07449237,,,space,7.4706,0,3,3,0,1,target,penultimate,"""No me gusta el té de manzanilla"" —abomino con certeza.",abominar,1,,,,,,,,,,,,,,,,,,,,,,,
,,,,,,,,,,auj020,03-14-2023_16h30.06.729,spanish_exp2,2022.1.4,Win32,60.07449237,,,space,7.4778,0,4,4,11,1,target,ultimate,"""Entraron sin pedir permiso"" —les incriminó seguro.",incriminar,1,,,,,,,,,,,,,,,,,,,,,,,
,,,,,,,,,,auj020,03-14-2023_16h30.06.729,spanish_exp2,2022.1.4,Win32,60.07449237,,,space,5.4347,0,5,5,4,1,target,penultimate,"""Escriban la respuesta"" —los examino seriamente.",examinar,1,,,,,,,,,,,,,,,,,,,,,,,
,,,,,,,,,,auj020,03-14-2023_16h30.06.729,spanish_exp2,2022.1.4,Win32,60.07449237,,,space,6.7279,0,6,6,7,1,target,ultimate,"""Me robaron"" —les recriminó con intensidad.",recriminar,1,,,,,,,,,,,,,,,,,,,,,,,
,,,,,,,,,,auj020,03-14-2023_16h30.06.729,spanish_exp2,2022.1.4,Win32,60.07449237,,,space,6.5656,0,7,7,2,1,target,penultimate,"""Este no es mi número de teléfono"" —la descamino complacido.",descaminar,1,,,,,,,,,,,,,,,,,,,,,,,
,,,,,,,,,,auj020,03-14-2023_16h30.06.729,spanish_exp2,2022.1.4,Win32,60.07449237,,,space,7.1364,0,8,8,9,1,target,ultimate,"""No puedo cocinar sin quemar la comida"" —me desanimó compungida.",desanimar,1,,,,,,,,,,,,,,,,,,,,,,,
,,,,,,,,,,auj020,03-14-2023_16h30.06.729,spanish_exp2,2022.1.4,Win32,60.07449237,,,space,7.3454,0,9,9,6,1,target,penultimate,"""Confirma la cita para mañana"" —le encamino con ilusión. ",encaminar,1,,,,,,,,,,,,,,,,,,,,,,,
,,,,,,,,,,auj020,03-14-2023_16h30.06.729,spanish_exp2,2022.1.4,Win32,60.07449237,,,space,5.1458,0,10,10,8,1,target,penultimate,"""Este tiene menos azúcar"" —discrimino tímida.",discriminar,1,,,,,,,,,,,,,,,,,,,,,,,
,,,,,,,,,,auj020,03-14-2023_16h30.06.729,spanish_exp2,2022.1.4,Win32,60.07449237,,,space,4.6982,0,11,11,10,1,target,penultimate,"""No son necesarios"" —los elimino segura.",eliminar,1,,,,,,,,,,,,,,,,,,,,,,,
,,,,,,,,,,auj020,03-14-2023_16h30.06.729,spanish_exp2,2022.1.4,Win32,60.07449237,,,space,7.103,0,12,12,12,1,target,penultimate,"""No habrá más cucarachas"" —extermino complacida.",exterminar,1,,,,,,,,,,,,,,,,,,,,,,,
,,,,,,,,,,auj020,03-14-2023_16h30.06.729,spanish_exp2,2022.1.4,Win32,60.07449237,,,space,8.2511,0,13,13,13,1,target,ultimate,"""Retrato de un hombre triste"" —lo denominó complacido. ",denominar,1,,,,,,,,,,,,,,,,,,,,,,,
,,,,,,,,,,auj020,03-14-2023_16h30.06.729,spanish_exp2,2022.1.4,Win32,60.07449237,,,,,,,,,,,,,,,0,0,0,0,1,main_trial_block1.xlsx,,,,,,,,,,,,,,,,,
,,,,,,,,,,auj020,03-14-2023_16h30.06.729,spanish_exp2,2022.1.4,Win32,60.07449237,,,space,7.7019,0,0,0,4,1,target,ultimate,"""Desarrollen esta ecuación"" —los examinó seriamente.",examinar,2,,,,,,,,,,,,,,,,,,,,,,,
,,,,,,,,,,auj020,03-14-2023_16h30.06.729,spanish_exp2,2022.1.4,Win32,60.07449237,,,space,6.5549,0,1,1,13,1,target,penultimate,"""Se llamará beta"" —lo denomino complacido.",denominar,2,,,,,,,,,,,,,,,,,,,,,,,
,,,,,,,,,,auj020,03-14-2023_16h30.06.729,spanish_exp2,2022.1.4,Win32,60.07449237,,,space,8.618,0,2,2,12,1,target,ultimate,"""Este insecticida es muy eficaz"" —exterminó complacida.",exterminar,2,,,,,,,,,,,,,,,,,,,,,,,
,,,,,,,,,,auj020,03-14-2023_16h30.06.729,spanish_exp2,2022.1.4,Win32,60.07449237,,,space,5.8787,0,3,3,9,1,target,penultimate,"""No puedo estudiar matemáticas"" —me desanimo compungida.",desanimar,2,,,,,,,,,,,,,,,,,,,,,,,
,,,,,,,,,,auj020,03-14-2023_16h30.06.729,spanish_exp2,2022.1.4,Win32,60.07449237,,,space,6.64,0,4,4,0,1,target,ultimate,"""No me gustan las corridas"" —abominó con certeza.",abominar,2,,,,,,,,,,,,,,,,,,,,,,,
,,,,,,,,,,auj020,03-14-2023_16h30.06.729,spanish_exp2,2022.1.4,Win32,60.07449237,,,space,6.5449,0,5,5,5,1,target,penultimate,"""Estas son las luces nuevas"" —ilumino contenta.",iluminar,2,,,,,,,,,,,,,,,,,,,,,,,
,,,,,,,,,,auj020,03-14-2023_16h30.06.729,spanish_exp2,2022.1.4,Win32,60.07449237,,,space,6.8349,0,6,6,1,1,target,penultimate,"""La masa del átomo es medible"" —determino complacida.",determinar,2,,,,,,,,,,,,,,,,,,,,,,,
,,,,,,,,,,auj020,03-14-2023_16h30.06.729,spanish_exp2,2022.1.4,Win32,60.07449237,,,space,6.0328,0,7,7,11,1,target,penultimate,"""Los Osvald, culpables"" —les incrimino seguro.",incriminar,2,,,,,,,,,,,,,,,,,,,,,,,
,,,,,,,,,,auj020,03-14-2023_16h30.06.729,spanish_exp2,2022.1.4,Win32,60.07449237,,,space,4.3243,0,8,8,10,1,target,ultimate,"""Tarjeta roja"" —los eliminó segura.",eliminar,2,,,,,,,,,,,,,,,,,,,,,,,
,,,,,,,,,,auj020,03-14-2023_16h30.06.729,spanish_exp2,2022.1.4,Win32,60.07449237,,,space,6.0765,0,9,9,6,1,target,ultimate,"""Lee estos artículos"" —le encaminó con ilusión.",encaminar,2,,,,,,,,,,,,,,,,,,,,,,,
,,,,,,,,,,auj020,03-14-2023_16h30.06.729,spanish_exp2,2022.1.4,Win32,60.07449237,,,space,7.3304,0,10,10,3,1,target,penultimate,"""La directora Pérez renuncia a su cargo"" —disemino compungido.",diseminar,2,,,,,,,,,,,,,,,,,,,,,,,
,,,,,,,,,,auj020,03-14-2023_16h30.06.729,spanish_exp2,2022.1.4,Win32,60.07449237,,,space,7.0353,0,11,11,7,1,target,penultimate,"""No me gusta su conducta"" —les recrimino con intensidad.",recriminar,2,,,,,,,,,,,,,,,,,,,,,,,
,,,,,,,,,,auj020,03-14-2023_16h30.06.729,spanish_exp2,2022.1.4,Win32,60.07449237,,,space,4.504,0,12,12,8,1,target,ultimate,"""Este es más fuerte"" —discriminó tímida.",discriminar,2,,,,,,,,,,,,,,,,,,,,,,,
,,,,,,,,,,auj020,03-14-2023_16h30.06.729,spanish_exp2,2022.1.4,Win32,60.07449237,,,space,6.3458,0,13,13,2,1,target,ultimate,"""Este es el camino más corto"" —la descaminó complacido.",descaminar,2,,,,,,,,,,,,,,,,,,,,,,,
,,,,,,,,,,auj020,03-14-2023_16h30.06.729,spanish_exp2,2022.1.4,Win32,60.07449237,,,,,,,,,,,,,,,0,1,1,1,1,main_trial_block2.xlsx,,,,,,,,,,,,,,,,,
,,,,,,,,,,auj020,03-14-2023_16h30.06.729,spanish_exp2,2022.1.4,Win32,60.07449237,,,,,,,,,,,,,,,,,,,,,space,10.949,0,0,0,0,1,,,,,,,,,,
,,,,,,,,,,auj020,03-14-2023_16h30.06.729,spanish_exp2,2022.1.4,Win32,60.07449237,,,space,4.2568,0,0,0,10,1,target,ultimate,"""Tarjeta roja"" —los eliminó segura.",eliminar,2,,,,,,,,,,,,,,,,,,,,,,,
,,,,,,,,,,auj020,03-14-2023_16h30.06.729,spanish_exp2,2022.1.4,Win32,60.07449237,,,space,4.9977,0,1,1,0,1,target,ultimate,"""No me gustan las corridas"" —abominó con certeza.",abominar,2,,,,,,,,,,,,,,,,,,,,,,,
,,,,,,,,,,auj020,03-14-2023_16h30.06.729,spanish_exp2,2022.1.4,Win32,60.07449237,,,space,4.929,0,2,2,5,1,target,penultimate,"""Estas son las luces nuevas"" —ilumino contenta.",iluminar,2,,,,,,,,,,,,,,,,,,,,,,,
,,,,,,,,,,auj020,03-14-2023_16h30.06.729,spanish_exp2,2022.1.4,Win32,60.07449237,,,space,7.229,0,3,3,11,1,target,penultimate,"""Los Osvald, culpables"" —les incrimino seguro.",incriminar,2,,,,,,,,,,,,,,,,,,,,,,,
,,,,,,,,,,auj020,03-14-2023_16h30.06.729,spanish_exp2,2022.1.4,Win32,60.07449237,,,space,5.7365,0,4,4,13,1,target,penultimate,"""Se llamará beta"" —lo denomino complacido.",denominar,2,,,,,,,,,,,,,,,,,,,,,,,
,,,,,,,,,,auj020,03-14-2023_16h30.06.729,spanish_exp2,2022.1.4,Win32,60.07449237,,,space,6.8193,0,5,5,1,1,target,penultimate,"""La masa del átomo es medible"" —determino complacida.",determinar,2,,,,,,,,,,,,,,,,,,,,,,,
,,,,,,,,,,auj020,03-14-2023_16h30.06.729,spanish_exp2,2022.1.4,Win32,60.07449237,,,space,6.0576,0,6,6,7,1,target,penultimate,"""No me gusta su conducta"" —les recrimino con intensidad.",recriminar,2,,,,,,,,,,,,,,,,,,,,,,,
,,,,,,,,,,auj020,03-14-2023_16h30.06.729,spanish_exp2,2022.1.4,Win32,60.07449237,,,space,6.3035,0,7,7,4,1,target,ultimate,"""Desarrollen esta ecuación"" —los examinó seriamente.",examinar,2,,,,,,,,,,,,,,,,,,,,,,,
,,,,,,,,,,auj020,03-14-2023_16h30.06.729,spanish_exp2,2022.1.4,Win32,60.07449237,,,space,7.7963,0,8,8,3,1,target,penultimate,"""La directora Pérez renuncia a su cargo"" —disemino compungido.",diseminar,2,,,,,,,,,,,,,,,,,,,,,,,
,,,,,,,,,,auj020,03-14-2023_16h30.06.729,spanish_exp2,2022.1.4,Win32,60.07449237,,,space,6.5613,0,9,9,2,1,target,ultimate,"""Este es el camino más corto"" —la descaminó complacido.",descaminar,2,,,,,,,,,,,,,,,,,,,,,,,
,,,,,,,,,,auj020,03-14-2023_16h30.06.729,spanish_exp2,2022.1.4,Win32,60.07449237,,,space,7.1044,0,10,10,12,1,target,ultimate,"""Este insecticida es muy eficaz"" —exterminó complacida.",exterminar,2,,,,,,,,,,,,,,,,,,,,,,,
,,,,,,,,,,auj020,03-14-2023_16h30.06.729,spanish_exp2,2022.1.4,Win32,60.07449237,,,space,4.5626,0,11,11,8,1,target,ultimate,"""Este es más fuerte"" —discriminó tímida.",discriminar,2,,,,,,,,,,,,,,,,,,,,,,,
,,,,,,,,,,auj020,03-14-2023_16h30.06.729,spanish_exp2,2022.1.4,Win32,60.07449237,,,space,6.8451,0,12,12,6,1,target,ultimate,"""Lee estos artículos"" —le encaminó con ilusión.",encaminar,2,,,,,,,,,,,,,,,,,,,,,,,
,,,,,,,,,,auj020,03-14-2023_16h30.06.729,spanish_exp2,2022.1.4,Win32,60.07449237,,,space,6.0059,0,13,13,9,1,target,penultimate,"""No puedo estudiar matemáticas"" —me desanimo compungida.",desanimar,2,,,,,,,,,,,,,,,,,,,,,,,
,,,,,,,,,,auj020,03-14-2023_16h30.06.729,spanish_exp2,2022.1.4,Win32,60.07449237,,,,,,,,,,,,,,,0,0,0,1,1,main_trial_block2.xlsx,,,,,,,,,,,,,,,,,
,,,,,,,,,,auj020,03-14-2023_16h30.06.729,spanish_exp2,2022.1.4,Win32,60.07449237,,,space,5.9876,0,0,0,13,1,target,ultimate,"""Retrato de un hombre triste"" —lo denominó complacido. ",denominar,1,,,,,,,,,,,,,,,,,,,,,,,
,,,,,,,,,,auj020,03-14-2023_16h30.06.729,spanish_exp2,2022.1.4,Win32,60.07449237,,,space,5.6452,0,1,1,4,1,target,penultimate,"""Escriban la respuesta"" —los examino seriamente.",examinar,1,,,,,,,,,,,,,,,,,,,,,,,
,,,,,,,,,,auj020,03-14-2023_16h30.06.729,spanish_exp2,2022.1.4,Win32,60.07449237,,,space,6.0295,0,2,2,0,1,target,penultimate,"""No me gusta el té de manzanilla"" —abomino con certeza.",abominar,1,,,,,,,,,,,,,,,,,,,,,,,
,,,,,,,,,,auj020,03-14-2023_16h30.06.729,spanish_exp2,2022.1.4,Win32,60.07449237,,,space,5.9303,0,3,3,7,1,target,ultimate,"""Me robaron"" —les recriminó con intensidad.",recriminar,1,,,,,,,,,,,,,,,,,,,,,,,
,,,,,,,,,,auj020,03-14-2023_16h30.06.729,spanish_exp2,2022.1.4,Win32,60.07449237,,,space,6.2681,0,4,4,2,1,target,penultimate,"""Este no es mi número de teléfono"" —la descamino complacido.",descaminar,1,,,,,,,,,,,,,,,,,,,,,,,
,,,,,,,,,,auj020,03-14-2023_16h30.06.729,spanish_exp2,2022.1.4,Win32,60.07449237,,,space,4.7949,0,5,5,10,1,target,penultimate,"""No son necesarios"" —los elimino segura.",eliminar,1,,,,,,,,,,,,,,,,,,,,,,,
,,,,,,,,,,auj020,03-14-2023_16h30.06.729,spanish_exp2,2022.1.4,Win32,60.07449237,,,space,6.4157,0,6,6,9,1,target,ultimate,"""No puedo cocinar sin quemar la comida"" —me desanimó compungida.",desanimar,1,,,,,,,,,,,,,,,,,,,,,,,
,,,,,,,,,,auj020,03-14-2023_16h30.06.729,spanish_exp2,2022.1.4,Win32,60.07449237,,,space,8.3188,0,7,7,3,1,target,ultimate,"""El presidente del estado se encuentra enfermo"" —diseminó compungido.",diseminar,1,,,,,,,,,,,,,,,,,,,,,,,
,,,,,,,,,,auj020,03-14-2023_16h30.06.729,spanish_exp2,2022.1.4,Win32,60.07449237,,,space,6.9961,0,8,8,8,1,target,penultimate,"""Este tiene menos azúcar"" —discrimino tímida.",discriminar,1,,,,,,,,,,,,,,,,,,,,,,,
,,,,,,,,,,auj020,03-14-2023_16h30.06.729,spanish_exp2,2022.1.4,Win32,60.07449237,,,space,6.9433,0,9,9,5,1,target,ultimate,"""Compré esta lámpara ayer"" —iluminó contenta.",iluminar,1,,,,,,,,,,,,,,,,,,,,,,,
,,,,,,,,,,auj020,03-14-2023_16h30.06.729,spanish_exp2,2022.1.4,Win32,60.07449237,,,space,5.914,0,10,10,1,1,target,ultimate,"""Con la lluvia el viento es muy fuerte"" —determinó complacida.",determinar,1,,,,,,,,,,,,,,,,,,,,,,,
,,,,,,,,,,auj020,03-14-2023_16h30.06.729,spanish_exp2,2022.1.4,Win32,60.07449237,,,space,6.3285,0,11,11,6,1,target,penultimate,"""Confirma la cita para mañana"" —le encamino con ilusión. ",encaminar,1,,,,,,,,,,,,,,,,,,,,,,,
,,,,,,,,,,auj020,03-14-2023_16h30.06.729,spanish_exp2,2022.1.4,Win32,60.07449237,,,space,6.0373,0,12,12,12,1,target,penultimate,"""No habrá más cucarachas"" —extermino complacida.",exterminar,1,,,,,,,,,,,,,,,,,,,,,,,
,,,,,,,,,,auj020,03-14-2023_16h30.06.729,spanish_exp2,2022.1.4,Win32,60.07449237,,,space,5.6666,0,13,13,11,1,target,ultimate,"""Entraron sin pedir permiso"" —les incriminó seguro.",incriminar,1,,,,,,,,,,,,,,,,,,,,,,,
,,,,,,,,,,auj020,03-14-2023_16h30.06.729,spanish_exp2,2022.1.4,Win32,60.07449237,,,,,,,,,,,,,,,0,1,1,0,1,main_trial_block1.xlsx,,,,,,,,,,,,,,,,,
,,,,,,,,,,auj020,03-14-2023_16h30.06.729,spanish_exp2,2022.1.4,Win32,60.07449237,,,,,,,,,,,,,,,,,,,,,space,9.3752,1,0,1,0,1,,,,,,,,,,
,,,,,,,,,,auj020,03-14-2023_16h30.06.729,spanish_exp2,2022.1.4,Win32,60.07449237,,,space,8.4696,,,,,,target,ultimate,"""El presidente del estado se encuentra enfermo"" —diseminó compungido.",diseminar,1,,,,,,,,,,,,,,0,0,0,3,1,,,,,
,,,,,,,,,,auj020,03-14-2023_16h30.06.729,spanish_exp2,2022.1.4,Win32,60.07449237,,,space,5.2238,,,,,,target,penultimate,"""Este tiene menos azúcar"" —discrimino tímida.",discriminar,1,,,,,,,,,,,,,,0,1,1,8,1,,,,,
,,,,,,,,,,auj020,03-14-2023_16h30.06.729,spanish_exp2,2022.1.4,Win32,60.07449237,,,space,5.6687,,,,,,target,ultimate,"""Con la lluvia el viento es muy fuerte"" —determinó complacida.",determinar,1,,,,,,,,,,,,,,0,2,2,1,1,,,,,
,,,,,,,,,,auj020,03-14-2023_16h30.06.729,spanish_exp2,2022.1.4,Win32,60.07449237,,,space,6.6291,,,,,,target,penultimate,"""Este no es mi número de teléfono"" —la descamino complacido.",descaminar,1,,,,,,,,,,,,,,0,3,3,2,1,,,,,
,,,,,,,,,,auj020,03-14-2023_16h30.06.729,spanish_exp2,2022.1.4,Win32,60.07449237,,,space,5.8803,,,,,,target,ultimate,"""Retrato de un hombre triste"" —lo denominó complacido. ",denominar,1,,,,,,,,,,,,,,0,4,4,13,1,,,,,
,,,,,,,,,,auj020,03-14-2023_16h30.06.729,spanish_exp2,2022.1.4,Win32,60.07449237,,,space,6.1833,,,,,,target,ultimate,"""No puedo cocinar sin quemar la comida"" —me desanimó compungida.",desanimar,1,,,,,,,,,,,,,,0,5,5,9,1,,,,,
,,,,,,,,,,auj020,03-14-2023_16h30.06.729,spanish_exp2,2022.1.4,Win32,60.07449237,,,space,5.2918,,,,,,target,penultimate,"""No habrá más cucarachas"" —extermino complacida.",exterminar,1,,,,,,,,,,,,,,0,6,6,12,1,,,,,
,,,,,,,,,,auj020,03-14-2023_16h30.06.729,spanish_exp2,2022.1.4,Win32,60.07449237,,,space,5.2184,,,,,,target,penultimate,"""Escriban la respuesta"" —los examino seriamente.",examinar,1,,,,,,,,,,,,,,0,7,7,4,1,,,,,
,,,,,,,,,,auj020,03-14-2023_16h30.06.729,spanish_exp2,2022.1.4,Win32,60.07449237,,,space,6.2037,,,,,,target,penultimate,"""Confirma la cita para mañana"" —le encamino con ilusión. ",encaminar,1,,,,,,,,,,,,,,0,8,8,6,1,,,,,
,,,,,,,,,,auj020,03-14-2023_16h30.06.729,spanish_exp2,2022.1.4,Win32,60.07449237,,,space,6.453,,,,,,target,penultimate,"""No me gusta el té de manzanilla"" —abomino con certeza.",abominar,1,,,,,,,,,,,,,,0,9,9,0,1,,,,,
,,,,,,,,,,auj020,03-14-2023_16h30.06.729,spanish_exp2,2022.1.4,Win32,60.07449237,,,space,5.4297,,,,,,target,ultimate,"""Me robaron"" —les recriminó con intensidad.",recriminar,1,,,,,,,,,,,,,,0,10,10,7,1,,,,,
,,,,,,,,,,auj020,03-14-2023_16h30.06.729,spanish_exp2,2022.1.4,Win32,60.07449237,,,space,4.3783,,,,,,target,penultimate,"""No son necesarios"" —los elimino segura.",eliminar,1,,,,,,,,,,,,,,0,11,11,10,1,,,,,
,,,,,,,,,,auj020,03-14-2023_16h30.06.729,spanish_exp2,2022.1.4,Win32,60.07449237,,,space,6.1554,,,,,,target,ultimate,"""Entraron sin pedir permiso"" —les incriminó seguro.",incriminar,1,,,,,,,,,,,,,,0,12,12,11,1,,,,,
,,,,,,,,,,auj020,03-14-2023_16h30.06.729,spanish_exp2,2022.1.4,Win32,60.07449237,,,space,5.7965,,,,,,target,ultimate,"""Compré esta lámpara ayer"" —iluminó contenta.",iluminar,1,,,,,,,,,,,,,,0,13,13,5,1,,,,,
,,,,,,,,,,auj020,03-14-2023_16h30.06.729,spanish_exp2,2022.1.4,Win32,60.07449237,,,,,,,,,,,,,,,,,,,,main_trial_block1.xlsx,,,,,,,,,,,,,0,0,0,0,1
,,,,,,,,,,auj020,03-14-2023_16h30.06.729,spanish_exp2,2022.1.4,Win32,60.07449237,,,space,5.5587,,,,,,target,penultimate,"""No me gusta su conducta"" —les recrimino con intensidad.",recriminar,2,,,,,,,,,,,,,,0,0,0,7,1,,,,,
,,,,,,,,,,auj020,03-14-2023_16h30.06.729,spanish_exp2,2022.1.4,Win32,60.07449237,,,space,6.7648,,,,,,target,ultimate,"""Este es el camino más corto"" —la descaminó complacido.",descaminar,2,,,,,,,,,,,,,,0,1,1,2,1,,,,,
,,,,,,,,,,auj020,03-14-2023_16h30.06.729,spanish_exp2,2022.1.4,Win32,60.07449237,,,space,6.2433,,,,,,target,penultimate,"""Los Osvald, culpables"" —les incrimino seguro.",incriminar,2,,,,,,,,,,,,,,0,2,2,11,1,,,,,
,,,,,,,,,,auj020,03-14-2023_16h30.06.729,spanish_exp2,2022.1.4,Win32,60.07449237,,,space,7.5181,,,,,,target,penultimate,"""La directora Pérez renuncia a su cargo"" —disemino compungido.",diseminar,2,,,,,,,,,,,,,,0,3,3,3,1,,,,,
,,,,,,,,,,auj020,03-14-2023_16h30.06.729,spanish_exp2,2022.1.4,Win32,60.07449237,,,space,5.8073,,,,,,target,penultimate,"""Estas son las luces nuevas"" —ilumino contenta.",iluminar,2,,,,,,,,,,,,,,0,4,4,5,1,,,,,
,,,,,,,,,,auj020,03-14-2023_16h30.06.729,spanish_exp2,2022.1.4,Win32,60.07449237,,,space,5.3992,,,,,,target,penultimate,"""Se llamará beta"" —lo denomino complacido.",denominar,2,,,,,,,,,,,,,,0,5,5,13,1,,,,,
,,,,,,,,,,auj020,03-14-2023_16h30.06.729,spanish_exp2,2022.1.4,Win32,60.07449237,,,space,6.5707,,,,,,target,ultimate,"""Lee estos artículos"" —le encaminó con ilusión.",encaminar,2,,,,,,,,,,,,,,0,6,6,6,1,,,,,
,,,,,,,,,,auj020,03-14-2023_16h30.06.729,spanish_exp2,2022.1.4,Win32,60.07449237,,,space,6.6242,,,,,,target,ultimate,"""Desarrollen esta ecuación"" —los examinó seriamente.",examinar,2,,,,,,,,,,,,,,0,7,7,4,1,,,,,
,,,,,,,,,,auj020,03-14-2023_16h30.06.729,spanish_exp2,2022.1.4,Win32,60.07449237,,,space,4.1849,,,,,,target,ultimate,"""Tarjeta roja"" —los eliminó segura.",eliminar,2,,,,,,,,,,,,,,0,8,8,10,1,,,,,
,,,,,,,,,,auj020,03-14-2023_16h30.06.729,spanish_exp2,2022.1.4,Win32,60.07449237,,,space,4.3372,,,,,,target,ultimate,"""Este es más fuerte"" —discriminó tímida.",discriminar,2,,,,,,,,,,,,,,0,9,9,8,1,,,,,
,,,,,,,,,,auj020,03-14-2023_16h30.06.729,spanish_exp2,2022.1.4,Win32,60.07449237,,,space,5.7319,,,,,,target,ultimate,"""No me gustan las corridas"" —abominó con certeza.",abominar,2,,,,,,,,,,,,,,0,10,10,0,1,,,,,
,,,,,,,,,,auj020,03-14-2023_16h30.06.729,spanish_exp2,2022.1.4,Win32,60.07449237,,,space,6.1491,,,,,,target,penultimate,"""La masa del átomo es medible"" —determino complacida.",determinar,2,,,,,,,,,,,,,,0,11,11,1,1,,,,,
,,,,,,,,,,auj020,03-14-2023_16h30.06.729,spanish_exp2,2022.1.4,Win32,60.07449237,,,space,6.4329,,,,,,target,ultimate,"""Este insecticida es muy eficaz"" —exterminó complacida.",exterminar,2,,,,,,,,,,,,,,0,12,12,12,1,,,,,
,,,,,,,,,,auj020,03-14-2023_16h30.06.729,spanish_exp2,2022.1.4,Win32,60.07449237,,,space,6.4294,,,,,,target,penultimate,"""No puedo estudiar matemáticas"" —me desanimo compungida.",desanimar,2,,,,,,,,,,,,,,0,13,13,9,1,,,,,
,,,,,,,,,,auj020,03-14-2023_16h30.06.729,spanish_exp2,2022.1.4,Win32,60.07449237,,,,,,,,,,,,,,,,,,,,main_trial_block2.xlsx,,,,,,,,,,,,,0,1,1,1,1
