key_resp.keys,key_resp.rt,key_resp_2.keys,key_resp_2.rt,trials_2.thisRepN,trials_2.thisTrialN,trials_2.thisN,trials_2.thisIndex,trials_2.ran,trialcatalan,participant ID,date,expName,psychopyVersion,OS,frameRate,key_resp_3.keys,key_resp_3.rt,key_resp_4.keys,key_resp_4.rt,trial_randomizer.thisRepN,trial_randomizer.thisTrialN,trial_randomizer.thisN,trial_randomizer.thisIndex,trial_randomizer.ran,fillertarget,stress,wordcatalan,verbcatalan,rand_12,block_randomizer.thisRepN,block_randomizer.thisTrialN,block_randomizer.thisN,block_randomizer.thisIndex,block_randomizer.ran,condsFile,key_resp_5.keys,key_resp_5.rt,mainTrialRep.thisRepN,mainTrialRep.thisTrialN,mainTrialRep.thisN,mainTrialRep.thisIndex,mainTrialRep.ran,trial_randomizer2.thisRepN,trial_randomizer2.thisTrialN,trial_randomizer2.thisN,trial_randomizer2.thisIndex,trial_randomizer2.ran,block_randomizer2.thisRepN,block_randomizer2.thisTrialN,block_randomizer2.thisN,block_randomizer2.thisIndex,block_randomizer2.ran
right,72.2588,space,10.1809,0,0,0,2,1,"""Voldria una mica de cafè"" —pensa complaguda.",Dis022,2023-02-08_12h27.42.572,catalan_exp2,2022.1.4,Win32,59.95563283,,,,,,,,,,,,,,,,,,,,,,,,,,,,,,,,,,,,,
,,space,3.6124,0,1,1,3,1,"""T'estimo molt"" —va sospirar content.",Dis022,2023-02-08_12h27.42.572,catalan_exp2,2022.1.4,Win32,59.95563283,,,,,,,,,,,,,,,,,,,,,,,,,,,,,,,,,,,,,
,,space,5.403,0,2,2,0,1,"""Ha regalat un pastís al seu nebot"" —va pensar confiat.",Dis022,2023-02-08_12h27.42.572,catalan_exp2,2022.1.4,Win32,59.95563283,,,,,,,,,,,,,,,,,,,,,,,,,,,,,,,,,,,,,
,,space,3.4988,0,3,3,1,1,"""Depèn de la temporada"" —explica seriòs.",Dis022,2023-02-08_12h27.42.572,catalan_exp2,2022.1.4,Win32,59.95563283,,,,,,,,,,,,,,,,,,,,,,,,,,,,,,,,,,,,,
,,,,,,,,,,Dis022,2023-02-08_12h27.42.572,catalan_exp2,2022.1.4,Win32,59.95563283,space,2.6348,space,4.9886,0,0,0,12,1,target,ultimate,"""Aquest verí va molt bé"" —va exterminar complaguda.",exterminar,2,,,,,,,,,,,,,,,,,,,,,,,
,,,,,,,,,,Dis022,2023-02-08_12h27.42.572,catalan_exp2,2022.1.4,Win32,59.95563283,,,space,4.6315,0,1,1,8,1,target,ultimate,"""Aquest és més fort"" —va discriminar tímid.",discriminar,2,,,,,,,,,,,,,,,,,,,,,,,
,,,,,,,,,,Dis022,2023-02-08_12h27.42.572,catalan_exp2,2022.1.4,Win32,59.95563283,,,space,7.9203,0,2,2,11,1,target,penultimate,"""Vostès són les culpables"" —les incrimina confiat.",incriminar,2,,,,,,,,,,,,,,,,,,,,,,,
,,,,,,,,,,Dis022,2023-02-08_12h27.42.572,catalan_exp2,2022.1.4,Win32,59.95563283,,,space,5.1798,0,3,3,7,1,target,penultimate,"""No m'agrada que em truquis"" —li recrimina seriosa.",recriminar,2,,,,,,,,,,,,,,,,,,,,,,,
,,,,,,,,,,Dis022,2023-02-08_12h27.42.572,catalan_exp2,2022.1.4,Win32,59.95563283,,,space,5.1456,0,4,4,6,1,target,ultimate,"""Llegiu aquests articles"" —les va encaminar tímida.",encaminar,2,,,,,,,,,,,,,,,,,,,,,,,
,,,,,,,,,,Dis022,2023-02-08_12h27.42.572,catalan_exp2,2022.1.4,Win32,59.95563283,,,space,9.989,0,5,5,4,1,target,ultimate,"""Facin aquesta equació"" —els va examinar clarament.",examinar,2,,,,,,,,,,,,,,,,,,,,,,,
,,,,,,,,,,Dis022,2023-02-08_12h27.42.572,catalan_exp2,2022.1.4,Win32,59.95563283,,,space,5.2463,0,6,6,9,1,target,penultimate,"""No passaré mai l'examen"" —es desanima seriós.",desanimar,2,,,,,,,,,,,,,,,,,,,,,,,
,,,,,,,,,,Dis022,2023-02-08_12h27.42.572,catalan_exp2,2022.1.4,Win32,59.95563283,,,space,5.105,0,7,7,0,1,target,ultimate,"""No m'agraden gens les curses de braus"" —va abominar plena.",abominar,2,,,,,,,,,,,,,,,,,,,,,,,
,,,,,,,,,,Dis022,2023-02-08_12h27.42.572,catalan_exp2,2022.1.4,Win32,59.95563283,,,space,4.7921,0,8,8,2,1,target,ultimate,"""Aquest és el camí més curt"" —la va descaminar complagut.",descaminar,2,,,,,,,,,,,,,,,,,,,,,,,
,,,,,,,,,,Dis022,2023-02-08_12h27.42.572,catalan_exp2,2022.1.4,Win32,59.95563283,,,space,5.0109,0,9,9,1,1,target,penultimate,"""La massa de l'àtom és mesurable"" —determina complaguda.",determinar,2,,,,,,,,,,,,,,,,,,,,,,,
,,,,,,,,,,Dis022,2023-02-08_12h27.42.572,catalan_exp2,2022.1.4,Win32,59.95563283,,,space,4.692,0,10,10,10,1,target,ultimate,"""Érem a casa a l'hora del crim"" —va eliminar segura.",eliminar,2,,,,,,,,,,,,,,,,,,,,,,,
,,,,,,,,,,Dis022,2023-02-08_12h27.42.572,catalan_exp2,2022.1.4,Win32,59.95563283,,,space,3.8514,0,11,11,5,1,target,penultimate,"""Bon Nadal a tots"" —il·lumina content.",illuminar,2,,,,,,,,,,,,,,,,,,,,,,,
,,,,,,,,,,Dis022,2023-02-08_12h27.42.572,catalan_exp2,2022.1.4,Win32,59.95563283,,,space,4.449,0,12,12,13,1,target,penultimate,"""Aquest gen es diu beta"" —denomina concret.",denominar,2,,,,,,,,,,,,,,,,,,,,,,,
,,,,,,,,,,Dis022,2023-02-08_12h27.42.572,catalan_exp2,2022.1.4,Win32,59.95563283,,,space,5.3697,0,13,13,3,1,target,penultimate,"""La senyora Martí renuncia al seu càrrec"" —dissemina prematura.",disseminar,2,,,,,,,,,,,,,,,,,,,,,,,
,,,,,,,,,,Dis022,2023-02-08_12h27.42.572,catalan_exp2,2022.1.4,Win32,59.95563283,,,,,,,,,,,,,,,0,0,0,1,1,main_trial_block2.xlsx,,,,,,,,,,,,,,,,,
,,,,,,,,,,Dis022,2023-02-08_12h27.42.572,catalan_exp2,2022.1.4,Win32,59.95563283,,,space,4.9847,0,0,0,2,1,target,penultimate,"""Aquest no és el meu número de telèfon"" —la descamina complagut.",descaminar,1,,,,,,,,,,,,,,,,,,,,,,,
,,,,,,,,,,Dis022,2023-02-08_12h27.42.572,catalan_exp2,2022.1.4,Win32,59.95563283,,,space,5.2326,0,1,1,9,1,target,ultimate,"""No puc cuinar sense cremar el menjar"" —es va desanimar seriós.",desanimar,1,,,,,,,,,,,,,,,,,,,,,,,
,,,,,,,,,,Dis022,2023-02-08_12h27.42.572,catalan_exp2,2022.1.4,Win32,59.95563283,,,space,6.2046,0,2,2,0,1,target,penultimate,"""No m'agrada el te de camamilla"" —abomina plena.",abominar,1,,,,,,,,,,,,,,,,,,,,,,,
,,,,,,,,,,Dis022,2023-02-08_12h27.42.572,catalan_exp2,2022.1.4,Win32,59.95563283,,,space,4.203,0,3,3,5,1,target,ultimate,"""Acabo de comprar aquest llum"" —va il·luminar content.",illuminar,1,,,,,,,,,,,,,,,,,,,,,,,
,,,,,,,,,,Dis022,2023-02-08_12h27.42.572,catalan_exp2,2022.1.4,Win32,59.95563283,,,space,3.852,0,4,4,7,1,target,ultimate,"""És culpa teva"" —li va recriminar seriosa.",recriminar,1,,,,,,,,,,,,,,,,,,,,,,,
,,,,,,,,,,Dis022,2023-02-08_12h27.42.572,catalan_exp2,2022.1.4,Win32,59.95563283,,,space,4.9111,0,5,5,1,1,target,ultimate,"""Amb la pluja el vent és molt fort"" —va determinar complaguda.",determinar,1,,,,,,,,,,,,,,,,,,,,,,,
,,,,,,,,,,Dis022,2023-02-08_12h27.42.572,catalan_exp2,2022.1.4,Win32,59.95563283,,,space,4.478,0,6,6,12,1,target,penultimate,"""No hi haurà més bestioles"" —extermina complaguda.",exterminar,1,,,,,,,,,,,,,,,,,,,,,,,
,,,,,,,,,,Dis022,2023-02-08_12h27.42.572,catalan_exp2,2022.1.4,Win32,59.95563283,,,space,5.2625,0,7,7,11,1,target,ultimate,"""Van entrar sense demanar permís"" —les va incriminar confiat.",incriminar,1,,,,,,,,,,,,,,,,,,,,,,,
,,,,,,,,,,Dis022,2023-02-08_12h27.42.572,catalan_exp2,2022.1.4,Win32,59.95563283,,,space,3.9498,0,8,8,8,1,target,penultimate,"""Aquest té menys sucre"" —discrimina tímid.",discriminar,1,,,,,,,,,,,,,,,,,,,,,,,
,,,,,,,,,,Dis022,2023-02-08_12h27.42.572,catalan_exp2,2022.1.4,Win32,59.95563283,,,space,3.7201,0,9,9,10,1,target,penultimate,"""No són necessaris"" —elimina segura.",eliminar,1,,,,,,,,,,,,,,,,,,,,,,,
,,,,,,,,,,Dis022,2023-02-08_12h27.42.572,catalan_exp2,2022.1.4,Win32,59.95563283,,,space,5.233,0,10,10,3,1,target,ultimate,"""El president de l'estat està malalt"" —va disseminar prematura.",disseminar,1,,,,,,,,,,,,,,,,,,,,,,,
,,,,,,,,,,Dis022,2023-02-08_12h27.42.572,catalan_exp2,2022.1.4,Win32,59.95563283,,,space,4.4175,0,11,11,13,1,target,ultimate,"""Retrat d'un home trist"" —va denominar concret.",denominar,1,,,,,,,,,,,,,,,,,,,,,,,
,,,,,,,,,,Dis022,2023-02-08_12h27.42.572,catalan_exp2,2022.1.4,Win32,59.95563283,,,space,5.0045,0,12,12,6,1,target,penultimate,"""Confirmin la cita per demà"" —les encamina tímida.",encaminar,1,,,,,,,,,,,,,,,,,,,,,,,
,,,,,,,,,,Dis022,2023-02-08_12h27.42.572,catalan_exp2,2022.1.4,Win32,59.95563283,,,space,4.6273,0,13,13,4,1,target,penultimate,"""Escriguin la resposta"" —els examina clarament.",examinar,1,,,,,,,,,,,,,,,,,,,,,,,
,,,,,,,,,,Dis022,2023-02-08_12h27.42.572,catalan_exp2,2022.1.4,Win32,59.95563283,,,,,,,,,,,,,,,0,1,1,0,1,main_trial_block1.xlsx,,,,,,,,,,,,,,,,,
,,,,,,,,,,Dis022,2023-02-08_12h27.42.572,catalan_exp2,2022.1.4,Win32,59.95563283,,,,,,,,,,,,,,,,,,,,,space,2.7739,0,0,0,0,1,,,,,,,,,,
,,,,,,,,,,Dis022,2023-02-08_12h27.42.572,catalan_exp2,2022.1.4,Win32,59.95563283,,,space,9.5938,0,0,0,1,1,target,penultimate,"""La massa de l'àtom és mesurable"" —determina complaguda.",determinar,2,,,,,,,,,,,,,,,,,,,,,,,
,,,,,,,,,,Dis022,2023-02-08_12h27.42.572,catalan_exp2,2022.1.4,Win32,59.95563283,,,space,4.595,0,1,1,0,1,target,ultimate,"""No m'agraden gens les curses de braus"" —va abominar plena.",abominar,2,,,,,,,,,,,,,,,,,,,,,,,
,,,,,,,,,,Dis022,2023-02-08_12h27.42.572,catalan_exp2,2022.1.4,Win32,59.95563283,,,space,3.6353,0,2,2,5,1,target,penultimate,"""Bon Nadal a tots"" —il·lumina content.",illuminar,2,,,,,,,,,,,,,,,,,,,,,,,
,,,,,,,,,,Dis022,2023-02-08_12h27.42.572,catalan_exp2,2022.1.4,Win32,59.95563283,,,space,3.7778,0,3,3,8,1,target,ultimate,"""Aquest és més fort"" —va discriminar tímid.",discriminar,2,,,,,,,,,,,,,,,,,,,,,,,
,,,,,,,,,,Dis022,2023-02-08_12h27.42.572,catalan_exp2,2022.1.4,Win32,59.95563283,,,space,4.3507,0,4,4,4,1,target,ultimate,"""Facin aquesta equació"" —els va examinar clarament.",examinar,2,,,,,,,,,,,,,,,,,,,,,,,
,,,,,,,,,,Dis022,2023-02-08_12h27.42.572,catalan_exp2,2022.1.4,Win32,59.95563283,,,space,4.5467,0,5,5,9,1,target,penultimate,"""No passaré mai l'examen"" —es desanima seriós.",desanimar,2,,,,,,,,,,,,,,,,,,,,,,,
,,,,,,,,,,Dis022,2023-02-08_12h27.42.572,catalan_exp2,2022.1.4,Win32,59.95563283,,,space,4.3615,0,6,6,6,1,target,ultimate,"""Llegiu aquests articles"" —les va encaminar tímida.",encaminar,2,,,,,,,,,,,,,,,,,,,,,,,
,,,,,,,,,,Dis022,2023-02-08_12h27.42.572,catalan_exp2,2022.1.4,Win32,59.95563283,,,space,5.1986,0,7,7,3,1,target,penultimate,"""La senyora Martí renuncia al seu càrrec"" —dissemina prematura.",disseminar,2,,,,,,,,,,,,,,,,,,,,,,,
,,,,,,,,,,Dis022,2023-02-08_12h27.42.572,catalan_exp2,2022.1.4,Win32,59.95563283,,,space,4.2025,0,8,8,7,1,target,penultimate,"""No m'agrada que em truquis"" —li recrimina seriosa.",recriminar,2,,,,,,,,,,,,,,,,,,,,,,,
,,,,,,,,,,Dis022,2023-02-08_12h27.42.572,catalan_exp2,2022.1.4,Win32,59.95563283,,,space,5.021,0,9,9,10,1,target,ultimate,"""Érem a casa a l'hora del crim"" —va eliminar segura.",eliminar,2,,,,,,,,,,,,,,,,,,,,,,,
,,,,,,,,,,Dis022,2023-02-08_12h27.42.572,catalan_exp2,2022.1.4,Win32,59.95563283,,,space,4.8763,0,10,10,11,1,target,penultimate,"""Vostès són les culpables"" —les incrimina confiat.",incriminar,2,,,,,,,,,,,,,,,,,,,,,,,
,,,,,,,,,,Dis022,2023-02-08_12h27.42.572,catalan_exp2,2022.1.4,Win32,59.95563283,,,space,4.5358,0,11,11,2,1,target,ultimate,"""Aquest és el camí més curt"" —la va descaminar complagut.",descaminar,2,,,,,,,,,,,,,,,,,,,,,,,
,,,,,,,,,,Dis022,2023-02-08_12h27.42.572,catalan_exp2,2022.1.4,Win32,59.95563283,,,space,3.8099,0,12,12,13,1,target,penultimate,"""Aquest gen es diu beta"" —denomina concret.",denominar,2,,,,,,,,,,,,,,,,,,,,,,,
,,,,,,,,,,Dis022,2023-02-08_12h27.42.572,catalan_exp2,2022.1.4,Win32,59.95563283,,,space,4.1363,0,13,13,12,1,target,ultimate,"""Aquest verí va molt bé"" —va exterminar complaguda.",exterminar,2,,,,,,,,,,,,,,,,,,,,,,,
,,,,,,,,,,Dis022,2023-02-08_12h27.42.572,catalan_exp2,2022.1.4,Win32,59.95563283,,,,,,,,,,,,,,,0,0,0,1,1,main_trial_block2.xlsx,,,,,,,,,,,,,,,,,
,,,,,,,,,,Dis022,2023-02-08_12h27.42.572,catalan_exp2,2022.1.4,Win32,59.95563283,,,space,3.3396,0,0,0,10,1,target,penultimate,"""No són necessaris"" —elimina segura.",eliminar,1,,,,,,,,,,,,,,,,,,,,,,,
,,,,,,,,,,Dis022,2023-02-08_12h27.42.572,catalan_exp2,2022.1.4,Win32,59.95563283,,,space,4.3576,0,1,1,4,1,target,penultimate,"""Escriguin la resposta"" —els examina clarament.",examinar,1,,,,,,,,,,,,,,,,,,,,,,,
,,,,,,,,,,Dis022,2023-02-08_12h27.42.572,catalan_exp2,2022.1.4,Win32,59.95563283,,,space,5.0461,0,2,2,3,1,target,ultimate,"""El president de l'estat està malalt"" —va disseminar prematura.",disseminar,1,,,,,,,,,,,,,,,,,,,,,,,
,,,,,,,,,,Dis022,2023-02-08_12h27.42.572,catalan_exp2,2022.1.4,Win32,59.95563283,,,space,5.0427,0,3,3,1,1,target,ultimate,"""Amb la pluja el vent és molt fort"" —va determinar complaguda.",determinar,1,,,,,,,,,,,,,,,,,,,,,,,
,,,,,,,,,,Dis022,2023-02-08_12h27.42.572,catalan_exp2,2022.1.4,Win32,59.95563283,,,space,4.0584,0,4,4,7,1,target,ultimate,"""És culpa teva"" —li va recriminar seriosa.",recriminar,1,,,,,,,,,,,,,,,,,,,,,,,
,,,,,,,,,,Dis022,2023-02-08_12h27.42.572,catalan_exp2,2022.1.4,Win32,59.95563283,,,space,4.9882,0,5,5,12,1,target,penultimate,"""No hi haurà més bestioles"" —extermina complaguda.",exterminar,1,,,,,,,,,,,,,,,,,,,,,,,
,,,,,,,,,,Dis022,2023-02-08_12h27.42.572,catalan_exp2,2022.1.4,Win32,59.95563283,,,space,3.8558,0,6,6,8,1,target,penultimate,"""Aquest té menys sucre"" —discrimina tímid.",discriminar,1,,,,,,,,,,,,,,,,,,,,,,,
,,,,,,,,,,Dis022,2023-02-08_12h27.42.572,catalan_exp2,2022.1.4,Win32,59.95563283,,,space,5.0521,0,7,7,9,1,target,ultimate,"""No puc cuinar sense cremar el menjar"" —es va desanimar seriós.",desanimar,1,,,,,,,,,,,,,,,,,,,,,,,
,,,,,,,,,,Dis022,2023-02-08_12h27.42.572,catalan_exp2,2022.1.4,Win32,59.95563283,,,space,4.57,0,8,8,11,1,target,ultimate,"""Van entrar sense demanar permís"" —les va incriminar confiat.",incriminar,1,,,,,,,,,,,,,,,,,,,,,,,
,,,,,,,,,,Dis022,2023-02-08_12h27.42.572,catalan_exp2,2022.1.4,Win32,59.95563283,,,space,4.2822,0,9,9,6,1,target,penultimate,"""Confirmin la cita per demà"" —les encamina tímida.",encaminar,1,,,,,,,,,,,,,,,,,,,,,,,
,,,,,,,,,,Dis022,2023-02-08_12h27.42.572,catalan_exp2,2022.1.4,Win32,59.95563283,,,space,8.8343,0,10,10,2,1,target,penultimate,"""Aquest no és el meu número de telèfon"" —la descamina complagut.",descaminar,1,,,,,,,,,,,,,,,,,,,,,,,
,,,,,,,,,,Dis022,2023-02-08_12h27.42.572,catalan_exp2,2022.1.4,Win32,59.95563283,,,space,4.2964,0,11,11,5,1,target,ultimate,"""Acabo de comprar aquest llum"" —va il·luminar content.",illuminar,1,,,,,,,,,,,,,,,,,,,,,,,
,,,,,,,,,,Dis022,2023-02-08_12h27.42.572,catalan_exp2,2022.1.4,Win32,59.95563283,,,space,4.3576,0,12,12,0,1,target,penultimate,"""No m'agrada el te de camamilla"" —abomina plena.",abominar,1,,,,,,,,,,,,,,,,,,,,,,,
,,,,,,,,,,Dis022,2023-02-08_12h27.42.572,catalan_exp2,2022.1.4,Win32,59.95563283,,,space,2.9304,0,13,13,13,1,target,ultimate,"""Retrat d'un home trist"" —va denominar concret.",denominar,1,,,,,,,,,,,,,,,,,,,,,,,
,,,,,,,,,,Dis022,2023-02-08_12h27.42.572,catalan_exp2,2022.1.4,Win32,59.95563283,,,,,,,,,,,,,,,0,1,1,0,1,main_trial_block1.xlsx,,,,,,,,,,,,,,,,,
,,,,,,,,,,Dis022,2023-02-08_12h27.42.572,catalan_exp2,2022.1.4,Win32,59.95563283,,,,,,,,,,,,,,,,,,,,,space,5.8308,1,0,1,0,1,,,,,,,,,,
,,,,,,,,,,Dis022,2023-02-08_12h27.42.572,catalan_exp2,2022.1.4,Win32,59.95563283,,,space,4.4512,,,,,,target,penultimate,"""Vostès són les culpables"" —les incrimina confiat.",incriminar,2,,,,,,,,,,,,,,0,0,0,11,1,,,,,
,,,,,,,,,,Dis022,2023-02-08_12h27.42.572,catalan_exp2,2022.1.4,Win32,59.95563283,,,space,3.6709,,,,,,target,ultimate,"""Aquest és més fort"" —va discriminar tímid.",discriminar,2,,,,,,,,,,,,,,0,1,1,8,1,,,,,
,,,,,,,,,,Dis022,2023-02-08_12h27.42.572,catalan_exp2,2022.1.4,Win32,59.95563283,,,space,10.1291,,,,,,target,ultimate,"""Facin aquesta equació"" —els va examinar clarament.",examinar,2,,,,,,,,,,,,,,0,2,2,4,1,,,,,
,,,,,,,,,,Dis022,2023-02-08_12h27.42.572,catalan_exp2,2022.1.4,Win32,59.95563283,,,space,4.8045,,,,,,target,penultimate,"""No passaré mai l'examen"" —es desanima seriós.",desanimar,2,,,,,,,,,,,,,,0,3,3,9,1,,,,,
,,,,,,,,,,Dis022,2023-02-08_12h27.42.572,catalan_exp2,2022.1.4,Win32,59.95563283,,,space,5.403,,,,,,target,penultimate,"""La senyora Martí renuncia al seu càrrec"" —dissemina prematura.",disseminar,2,,,,,,,,,,,,,,0,4,4,3,1,,,,,
,,,,,,,,,,Dis022,2023-02-08_12h27.42.572,catalan_exp2,2022.1.4,Win32,59.95563283,,,space,5.4591,,,,,,target,penultimate,"""La massa de l'àtom és mesurable"" —determina complaguda.",determinar,2,,,,,,,,,,,,,,0,5,5,1,1,,,,,
,,,,,,,,,,Dis022,2023-02-08_12h27.42.572,catalan_exp2,2022.1.4,Win32,59.95563283,,,space,4.3576,,,,,,target,penultimate,"""Aquest gen es diu beta"" —denomina concret.",denominar,2,,,,,,,,,,,,,,0,6,6,13,1,,,,,
,,,,,,,,,,Dis022,2023-02-08_12h27.42.572,catalan_exp2,2022.1.4,Win32,59.95563283,,,space,4.2907,,,,,,target,ultimate,"""Érem a casa a l'hora del crim"" —va eliminar segura.",eliminar,2,,,,,,,,,,,,,,0,7,7,10,1,,,,,
,,,,,,,,,,Dis022,2023-02-08_12h27.42.572,catalan_exp2,2022.1.4,Win32,59.95563283,,,space,4.2627,,,,,,target,penultimate,"""No m'agrada que em truquis"" —li recrimina seriosa.",recriminar,2,,,,,,,,,,,,,,0,8,8,7,1,,,,,
,,,,,,,,,,Dis022,2023-02-08_12h27.42.572,catalan_exp2,2022.1.4,Win32,59.95563283,,,space,5.1776,,,,,,target,ultimate,"""Aquest és el camí més curt"" —la va descaminar complagut.",descaminar,2,,,,,,,,,,,,,,0,9,9,2,1,,,,,
,,,,,,,,,,Dis022,2023-02-08_12h27.42.572,catalan_exp2,2022.1.4,Win32,59.95563283,,,space,5.409,,,,,,target,ultimate,"""Aquest verí va molt bé"" —va exterminar complaguda.",exterminar,2,,,,,,,,,,,,,,0,10,10,12,1,,,,,
,,,,,,,,,,Dis022,2023-02-08_12h27.42.572,catalan_exp2,2022.1.4,Win32,59.95563283,,,space,3.5115,,,,,,target,penultimate,"""Bon Nadal a tots"" —il·lumina content.",illuminar,2,,,,,,,,,,,,,,0,11,11,5,1,,,,,
,,,,,,,,,,Dis022,2023-02-08_12h27.42.572,catalan_exp2,2022.1.4,Win32,59.95563283,,,space,4.713,,,,,,target,ultimate,"""Llegiu aquests articles"" —les va encaminar tímida.",encaminar,2,,,,,,,,,,,,,,0,12,12,6,1,,,,,
,,,,,,,,,,Dis022,2023-02-08_12h27.42.572,catalan_exp2,2022.1.4,Win32,59.95563283,,,space,4.5805,,,,,,target,ultimate,"""No m'agraden gens les curses de braus"" —va abominar plena.",abominar,2,,,,,,,,,,,,,,0,13,13,0,1,,,,,
,,,,,,,,,,Dis022,2023-02-08_12h27.42.572,catalan_exp2,2022.1.4,Win32,59.95563283,,,,,,,,,,,,,,,,,,,,main_trial_block2.xlsx,,,,,,,,,,,,,0,0,0,1,1
,,,,,,,,,,Dis022,2023-02-08_12h27.42.572,catalan_exp2,2022.1.4,Win32,59.95563283,,,space,3.8911,,,,,,target,penultimate,"""No m'agrada el te de camamilla"" —abomina plena.",abominar,1,,,,,,,,,,,,,,0,0,0,0,1,,,,,
,,,,,,,,,,Dis022,2023-02-08_12h27.42.572,catalan_exp2,2022.1.4,Win32,59.95563283,,,space,4.8337,,,,,,target,ultimate,"""Amb la pluja el vent és molt fort"" —va determinar complaguda.",determinar,1,,,,,,,,,,,,,,0,1,1,1,1,,,,,
,,,,,,,,,,Dis022,2023-02-08_12h27.42.572,catalan_exp2,2022.1.4,Win32,59.95563283,,,space,6.8025,,,,,,target,ultimate,"""Retrat d'un home trist"" —va denominar concret.",denominar,1,,,,,,,,,,,,,,0,2,2,13,1,,,,,
,,,,,,,,,,Dis022,2023-02-08_12h27.42.572,catalan_exp2,2022.1.4,Win32,59.95563283,,,space,5.5564,,,,,,target,ultimate,"""No puc cuinar sense cremar el menjar"" —es va desanimar seriós.",desanimar,1,,,,,,,,,,,,,,0,3,3,9,1,,,,,
,,,,,,,,,,Dis022,2023-02-08_12h27.42.572,catalan_exp2,2022.1.4,Win32,59.95563283,,,space,4.5079,,,,,,target,penultimate,"""Escriguin la resposta"" —els examina clarament.",examinar,1,,,,,,,,,,,,,,0,4,4,4,1,,,,,
,,,,,,,,,,Dis022,2023-02-08_12h27.42.572,catalan_exp2,2022.1.4,Win32,59.95563283,,,space,3.6691,,,,,,target,ultimate,"""És culpa teva"" —li va recriminar seriosa.",recriminar,1,,,,,,,,,,,,,,0,5,5,7,1,,,,,
,,,,,,,,,,Dis022,2023-02-08_12h27.42.572,catalan_exp2,2022.1.4,Win32,59.95563283,,,space,4.43,,,,,,target,penultimate,"""No hi haurà més bestioles"" —extermina complaguda.",exterminar,1,,,,,,,,,,,,,,0,6,6,12,1,,,,,
,,,,,,,,,,Dis022,2023-02-08_12h27.42.572,catalan_exp2,2022.1.4,Win32,59.95563283,,,space,5.6551,,,,,,target,penultimate,"""Aquest no és el meu número de telèfon"" —la descamina complagut.",descaminar,1,,,,,,,,,,,,,,0,7,7,2,1,,,,,
,,,,,,,,,,Dis022,2023-02-08_12h27.42.572,catalan_exp2,2022.1.4,Win32,59.95563283,,,space,4.219,,,,,,target,penultimate,"""Aquest té menys sucre"" —discrimina tímid.",discriminar,1,,,,,,,,,,,,,,0,8,8,8,1,,,,,
,,,,,,,,,,Dis022,2023-02-08_12h27.42.572,catalan_exp2,2022.1.4,Win32,59.95563283,,,space,5.2561,,,,,,target,penultimate,"""Confirmin la cita per demà"" —les encamina tímida.",encaminar,1,,,,,,,,,,,,,,0,9,9,6,1,,,,,
,,,,,,,,,,Dis022,2023-02-08_12h27.42.572,catalan_exp2,2022.1.4,Win32,59.95563283,,,space,4.8995,,,,,,target,ultimate,"""Van entrar sense demanar permís"" —les va incriminar confiat.",incriminar,1,,,,,,,,,,,,,,0,10,10,11,1,,,,,
,,,,,,,,,,Dis022,2023-02-08_12h27.42.572,catalan_exp2,2022.1.4,Win32,59.95563283,,,space,3.9827,,,,,,target,penultimate,"""No són necessaris"" —elimina segura.",eliminar,1,,,,,,,,,,,,,,0,11,11,10,1,,,,,
,,,,,,,,,,Dis022,2023-02-08_12h27.42.572,catalan_exp2,2022.1.4,Win32,59.95563283,,,space,4.1915,,,,,,target,ultimate,"""Acabo de comprar aquest llum"" —va il·luminar content.",illuminar,1,,,,,,,,,,,,,,0,12,12,5,1,,,,,
,,,,,,,,,,Dis022,2023-02-08_12h27.42.572,catalan_exp2,2022.1.4,Win32,59.95563283,,,space,5.3524,,,,,,target,ultimate,"""El president de l'estat està malalt"" —va disseminar prematura.",disseminar,1,,,,,,,,,,,,,,0,13,13,3,1,,,,,
,,,,,,,,,,Dis022,2023-02-08_12h27.42.572,catalan_exp2,2022.1.4,Win32,59.95563283,,,,,,,,,,,,,,,,,,,,main_trial_block1.xlsx,,,,,,,,,,,,,0,1,1,0,1
