key_resp.keys,key_resp.rt,key_resp_2.keys,key_resp_2.rt,trials_2.thisRepN,trials_2.thisTrialN,trials_2.thisN,trials_2.thisIndex,trials_2.ran,trialspanish,participant ID,date,expName,psychopyVersion,OS,frameRate,key_resp_3.keys,key_resp_3.rt,key_resp_4.keys,key_resp_4.rt,trials_randomizer.thisRepN,trials_randomizer.thisTrialN,trials_randomizer.thisN,trials_randomizer.thisIndex,trials_randomizer.ran,fillertarget,stress,wordspanish,verbspanish,rand_12,block_randomizer.thisRepN,block_randomizer.thisTrialN,block_randomizer.thisN,block_randomizer.thisIndex,block_randomizer.ran,condsFile,key_resp_5.keys,key_resp_5.rt,mainTrialReps.thisRepN,mainTrialReps.thisTrialN,mainTrialReps.thisN,mainTrialReps.thisIndex,mainTrialReps.ran,trials_randomizer2.thisRepN,trials_randomizer2.thisTrialN,trials_randomizer2.thisN,trials_randomizer2.thisIndex,trials_randomizer2.ran,block_randomizer2.thisRepN,block_randomizer2.thisTrialN,block_randomizer2.thisN,block_randomizer2.thisIndex,block_randomizer2.ran
space,18.369,space,4.9517,0,0,0,1,1,"""Depende del clima"" —respondió claramente.",eir057_exp2_spa,02-26-2023_13h55.53.041,spanish_exp2,2022.1.4,MacIntel,120.0048002,,,,,,,,,,,,,,,,,,,,,,,,,,,,,,,,,,,,,
,,space,3.4757,0,1,1,2,1,"""Me gustaría un café"" —pienso complacido.",eir057_exp2_spa,02-26-2023_13h55.53.041,spanish_exp2,2022.1.4,MacIntel,120.0048002,,,,,,,,,,,,,,,,,,,,,,,,,,,,,,,,,,,,,
,,space,4.5657,0,2,2,0,1,"""Le regaló una camiseta a su sobrino"" —digo contento.",eir057_exp2_spa,02-26-2023_13h55.53.041,spanish_exp2,2022.1.4,MacIntel,120.0048002,,,,,,,,,,,,,,,,,,,,,,,,,,,,,,,,,,,,,
,,space,3.8348,0,3,3,3,1,"""Te quiero mucho"" —suspiró contenta Teresa.",eir057_exp2_spa,02-26-2023_13h55.53.041,spanish_exp2,2022.1.4,MacIntel,120.0048002,,,,,,,,,,,,,,,,,,,,,,,,,,,,,,,,,,,,,
,,,,,,,,,,eir057_exp2_spa,02-26-2023_13h55.53.041,spanish_exp2,2022.1.4,MacIntel,120.0048002,space,10.547,space,4.8768,0,0,0,1,1,target,ultimate,"""Con la lluvia el viento es muy fuerte"" —determinó complacida.",determinar,1,,,,,,,,,,,,,,,,,,,,,,,
,,,,,,,,,,eir057_exp2_spa,02-26-2023_13h55.53.041,spanish_exp2,2022.1.4,MacIntel,120.0048002,,,space,4.5423,0,1,1,8,1,target,penultimate,"""Este tiene menos azúcar"" —discrimino tímida.",discriminar,1,,,,,,,,,,,,,,,,,,,,,,,
,,,,,,,,,,eir057_exp2_spa,02-26-2023_13h55.53.041,spanish_exp2,2022.1.4,MacIntel,120.0048002,,,space,4.3429,0,2,2,12,1,target,penultimate,"""No habrá más cucarachas"" —extermino complacida.",exterminar,1,,,,,,,,,,,,,,,,,,,,,,,
,,,,,,,,,,eir057_exp2_spa,02-26-2023_13h55.53.041,spanish_exp2,2022.1.4,MacIntel,120.0048002,,,space,4.4607,0,3,3,10,1,target,penultimate,"""No son necesarios"" —los elimino segura.",eliminar,1,,,,,,,,,,,,,,,,,,,,,,,
,,,,,,,,,,eir057_exp2_spa,02-26-2023_13h55.53.041,spanish_exp2,2022.1.4,MacIntel,120.0048002,,,space,5.0072,0,4,4,2,1,target,penultimate,"""Este no es mi número de teléfono"" —la descamino complacido.",descaminar,1,,,,,,,,,,,,,,,,,,,,,,,
,,,,,,,,,,eir057_exp2_spa,02-26-2023_13h55.53.041,spanish_exp2,2022.1.4,MacIntel,120.0048002,,,space,4.6518,0,5,5,7,1,target,ultimate,"""Me robaron"" —les recriminó con intensidad.",recriminar,1,,,,,,,,,,,,,,,,,,,,,,,
,,,,,,,,,,eir057_exp2_spa,02-26-2023_13h55.53.041,spanish_exp2,2022.1.4,MacIntel,120.0048002,,,space,5.0414,0,6,6,6,1,target,penultimate,"""Confirma la cita para mañana"" —le encamino con ilusión. ",encaminar,1,,,,,,,,,,,,,,,,,,,,,,,
,,,,,,,,,,eir057_exp2_spa,02-26-2023_13h55.53.041,spanish_exp2,2022.1.4,MacIntel,120.0048002,,,space,4.6402,0,7,7,0,1,target,penultimate,"""No me gusta el té de manzanilla"" —abomino con certeza.",abominar,1,,,,,,,,,,,,,,,,,,,,,,,
,,,,,,,,,,eir057_exp2_spa,02-26-2023_13h55.53.041,spanish_exp2,2022.1.4,MacIntel,120.0048002,,,space,5.4951,0,8,8,3,1,target,ultimate,"""El presidente del estado se encuentra enfermo"" —diseminó compungido.",diseminar,1,,,,,,,,,,,,,,,,,,,,,,,
,,,,,,,,,,eir057_exp2_spa,02-26-2023_13h55.53.041,spanish_exp2,2022.1.4,MacIntel,120.0048002,,,space,4.8885,0,9,9,9,1,target,ultimate,"""No puedo cocinar sin quemar la comida"" —me desanimó compungida.",desanimar,1,,,,,,,,,,,,,,,,,,,,,,,
,,,,,,,,,,eir057_exp2_spa,02-26-2023_13h55.53.041,spanish_exp2,2022.1.4,MacIntel,120.0048002,,,space,4.8172,0,10,10,11,1,target,ultimate,"""Entraron sin pedir permiso"" —les incriminó seguro.",incriminar,1,,,,,,,,,,,,,,,,,,,,,,,
,,,,,,,,,,eir057_exp2_spa,02-26-2023_13h55.53.041,spanish_exp2,2022.1.4,MacIntel,120.0048002,,,space,4.5454,0,11,11,5,1,target,ultimate,"""Compré esta lámpara ayer"" —iluminó contenta.",iluminar,1,,,,,,,,,,,,,,,,,,,,,,,
,,,,,,,,,,eir057_exp2_spa,02-26-2023_13h55.53.041,spanish_exp2,2022.1.4,MacIntel,120.0048002,,,space,4.4945,0,12,12,4,1,target,penultimate,"""Escriban la respuesta"" —los examino seriosamente.",examinar,1,,,,,,,,,,,,,,,,,,,,,,,
,,,,,,,,,,eir057_exp2_spa,02-26-2023_13h55.53.041,spanish_exp2,2022.1.4,MacIntel,120.0048002,,,space,4.5091,0,13,13,13,1,target,ultimate,"""Retrato de un hombre triste"" —lo denominó complacido. ",denominar,1,,,,,,,,,,,,,,,,,,,,,,,
,,,,,,,,,,eir057_exp2_spa,02-26-2023_13h55.53.041,spanish_exp2,2022.1.4,MacIntel,120.0048002,,,,,,,,,,,,,,,0,0,0,0,1,main_trial_block1.xlsx,,,,,,,,,,,,,,,,,
,,,,,,,,,,eir057_exp2_spa,02-26-2023_13h55.53.041,spanish_exp2,2022.1.4,MacIntel,120.0048002,,,space,4.002,0,0,0,10,1,target,ultimate,"""Tarjeta roja"" —los eliminó segura.",eliminar,2,,,,,,,,,,,,,,,,,,,,,,,
,,,,,,,,,,eir057_exp2_spa,02-26-2023_13h55.53.041,spanish_exp2,2022.1.4,MacIntel,120.0048002,,,space,3.8542,0,1,1,8,1,target,ultimate,"""Este es más fuerte"" —discriminó tímida.",discriminar,2,,,,,,,,,,,,,,,,,,,,,,,
,,,,,,,,,,eir057_exp2_spa,02-26-2023_13h55.53.041,spanish_exp2,2022.1.4,MacIntel,120.0048002,,,space,4.4952,0,2,2,1,1,target,penultimate,"""La masa del átomo es medible"" —determino complacida.",determinar,2,,,,,,,,,,,,,,,,,,,,,,,
,,,,,,,,,,eir057_exp2_spa,02-26-2023_13h55.53.041,spanish_exp2,2022.1.4,MacIntel,120.0048002,,,space,4.5736,0,3,3,9,1,target,penultimate,"""No puedo estudiar matemáticas"" —me desanimo compungida.",desanimar,2,,,,,,,,,,,,,,,,,,,,,,,
,,,,,,,,,,eir057_exp2_spa,02-26-2023_13h55.53.041,spanish_exp2,2022.1.4,MacIntel,120.0048002,,,space,4.7169,0,4,4,0,1,target,ultimate,"""No me gustan las corridas"" —abominó con certeza.",abominar,2,,,,,,,,,,,,,,,,,,,,,,,
,,,,,,,,,,eir057_exp2_spa,02-26-2023_13h55.53.041,spanish_exp2,2022.1.4,MacIntel,120.0048002,,,space,5.8243,0,5,5,4,1,target,ultimate,"""Desarrollen esta ecuación"" —los examinó seriosamente.",examinar,2,,,,,,,,,,,,,,,,,,,,,,,
,,,,,,,,,,eir057_exp2_spa,02-26-2023_13h55.53.041,spanish_exp2,2022.1.4,MacIntel,120.0048002,,,space,5.1447,0,6,6,2,1,target,ultimate,"""Este es el camino más corto"" —la descaminó complacido.",descaminar,2,,,,,,,,,,,,,,,,,,,,,,,
,,,,,,,,,,eir057_exp2_spa,02-26-2023_13h55.53.041,spanish_exp2,2022.1.4,MacIntel,120.0048002,,,space,5.967,0,7,7,3,1,target,penultimate,"""La directora Pérez renuncia a su cargo"" —disemino compungido.",diseminar,2,,,,,,,,,,,,,,,,,,,,,,,
,,,,,,,,,,eir057_exp2_spa,02-26-2023_13h55.53.041,spanish_exp2,2022.1.4,MacIntel,120.0048002,,,space,4.5009,0,8,8,5,1,target,penultimate,"""Estas son las luces nuevas"" —ilumino contenta.",iluminar,2,,,,,,,,,,,,,,,,,,,,,,,
,,,,,,,,,,eir057_exp2_spa,02-26-2023_13h55.53.041,spanish_exp2,2022.1.4,MacIntel,120.0048002,,,space,4.3624,0,9,9,11,1,target,penultimate,"""Los Osvald, culpables"" —les incrimino seguro.",incriminar,2,,,,,,,,,,,,,,,,,,,,,,,
,,,,,,,,,,eir057_exp2_spa,02-26-2023_13h55.53.041,spanish_exp2,2022.1.4,MacIntel,120.0048002,,,space,5.2684,0,10,10,6,1,target,ultimate,"""Lee estos artículos"" —le encaminó con ilusión.",encaminar,2,,,,,,,,,,,,,,,,,,,,,,,
,,,,,,,,,,eir057_exp2_spa,02-26-2023_13h55.53.041,spanish_exp2,2022.1.4,MacIntel,120.0048002,,,space,4.8376,0,11,11,7,1,target,penultimate,"""No me gusta su conducta"" —les recrimino con intensidad.",recriminar,2,,,,,,,,,,,,,,,,,,,,,,,
,,,,,,,,,,eir057_exp2_spa,02-26-2023_13h55.53.041,spanish_exp2,2022.1.4,MacIntel,120.0048002,,,space,4.3098,0,12,12,13,1,target,penultimate,"""Se llamará beta"" —lo denomino complacido.",denominar,2,,,,,,,,,,,,,,,,,,,,,,,
,,,,,,,,,,eir057_exp2_spa,02-26-2023_13h55.53.041,spanish_exp2,2022.1.4,MacIntel,120.0048002,,,space,5.0176,0,13,13,12,1,target,ultimate,"""Este insecticida es muy eficaz"" —exterminó complacida.",exterminar,2,,,,,,,,,,,,,,,,,,,,,,,
,,,,,,,,,,eir057_exp2_spa,02-26-2023_13h55.53.041,spanish_exp2,2022.1.4,MacIntel,120.0048002,,,,,,,,,,,,,,,0,1,1,1,1,main_trial_block2.xlsx,,,,,,,,,,,,,,,,,
,,,,,,,,,,eir057_exp2_spa,02-26-2023_13h55.53.041,spanish_exp2,2022.1.4,MacIntel,120.0048002,,,,,,,,,,,,,,,,,,,,,space,11.7256,0,0,0,0,1,,,,,,,,,,
,,,,,,,,,,eir057_exp2_spa,02-26-2023_13h55.53.041,spanish_exp2,2022.1.4,MacIntel,120.0048002,,,space,4.8904,0,0,0,9,1,target,ultimate,"""No puedo cocinar sin quemar la comida"" —me desanimó compungida.",desanimar,1,,,,,,,,,,,,,,,,,,,,,,,
,,,,,,,,,,eir057_exp2_spa,02-26-2023_13h55.53.041,spanish_exp2,2022.1.4,MacIntel,120.0048002,,,space,4.4003,0,1,1,4,1,target,penultimate,"""Escriban la respuesta"" —los examino seriosamente.",examinar,1,,,,,,,,,,,,,,,,,,,,,,,
,,,,,,,,,,eir057_exp2_spa,02-26-2023_13h55.53.041,spanish_exp2,2022.1.4,MacIntel,120.0048002,,,space,3.6167,0,2,2,10,1,target,penultimate,"""No son necesarios"" —los elimino segura.",eliminar,1,,,,,,,,,,,,,,,,,,,,,,,
,,,,,,,,,,eir057_exp2_spa,02-26-2023_13h55.53.041,spanish_exp2,2022.1.4,MacIntel,120.0048002,,,space,3.8628,0,3,3,5,1,target,ultimate,"""Compré esta lámpara ayer"" —iluminó contenta.",iluminar,1,,,,,,,,,,,,,,,,,,,,,,,
,,,,,,,,,,eir057_exp2_spa,02-26-2023_13h55.53.041,spanish_exp2,2022.1.4,MacIntel,120.0048002,,,space,4.5096,0,4,4,2,1,target,penultimate,"""Este no es mi número de teléfono"" —la descamino complacido.",descaminar,1,,,,,,,,,,,,,,,,,,,,,,,
,,,,,,,,,,eir057_exp2_spa,02-26-2023_13h55.53.041,spanish_exp2,2022.1.4,MacIntel,120.0048002,,,space,4.2016,0,5,5,0,1,target,penultimate,"""No me gusta el té de manzanilla"" —abomino con certeza.",abominar,1,,,,,,,,,,,,,,,,,,,,,,,
,,,,,,,,,,eir057_exp2_spa,02-26-2023_13h55.53.041,spanish_exp2,2022.1.4,MacIntel,120.0048002,,,space,4.2614,0,6,6,12,1,target,penultimate,"""No habrá más cucarachas"" —extermino complacida.",exterminar,1,,,,,,,,,,,,,,,,,,,,,,,
,,,,,,,,,,eir057_exp2_spa,02-26-2023_13h55.53.041,spanish_exp2,2022.1.4,MacIntel,120.0048002,,,space,4.5065,0,7,7,8,1,target,penultimate,"""Este tiene menos azúcar"" —discrimino tímida.",discriminar,1,,,,,,,,,,,,,,,,,,,,,,,
,,,,,,,,,,eir057_exp2_spa,02-26-2023_13h55.53.041,spanish_exp2,2022.1.4,MacIntel,120.0048002,,,space,4.4975,0,8,8,13,1,target,ultimate,"""Retrato de un hombre triste"" —lo denominó complacido. ",denominar,1,,,,,,,,,,,,,,,,,,,,,,,
,,,,,,,,,,eir057_exp2_spa,02-26-2023_13h55.53.041,spanish_exp2,2022.1.4,MacIntel,120.0048002,,,space,4.5773,0,9,9,1,1,target,ultimate,"""Con la lluvia el viento es muy fuerte"" —determinó complacida.",determinar,1,,,,,,,,,,,,,,,,,,,,,,,
,,,,,,,,,,eir057_exp2_spa,02-26-2023_13h55.53.041,spanish_exp2,2022.1.4,MacIntel,120.0048002,,,space,3.8829,0,10,10,7,1,target,ultimate,"""Me robaron"" —les recriminó con intensidad.",recriminar,1,,,,,,,,,,,,,,,,,,,,,,,
,,,,,,,,,,eir057_exp2_spa,02-26-2023_13h55.53.041,spanish_exp2,2022.1.4,MacIntel,120.0048002,,,space,4.374,0,11,11,11,1,target,ultimate,"""Entraron sin pedir permiso"" —les incriminó seguro.",incriminar,1,,,,,,,,,,,,,,,,,,,,,,,
,,,,,,,,,,eir057_exp2_spa,02-26-2023_13h55.53.041,spanish_exp2,2022.1.4,MacIntel,120.0048002,,,space,5.0603,0,12,12,3,1,target,ultimate,"""El presidente del estado se encuentra enfermo"" —diseminó compungido.",diseminar,1,,,,,,,,,,,,,,,,,,,,,,,
,,,,,,,,,,eir057_exp2_spa,02-26-2023_13h55.53.041,spanish_exp2,2022.1.4,MacIntel,120.0048002,,,space,4.8098,0,13,13,6,1,target,penultimate,"""Confirma la cita para mañana"" —le encamino con ilusión. ",encaminar,1,,,,,,,,,,,,,,,,,,,,,,,
,,,,,,,,,,eir057_exp2_spa,02-26-2023_13h55.53.041,spanish_exp2,2022.1.4,MacIntel,120.0048002,,,,,,,,,,,,,,,0,0,0,0,1,main_trial_block1.xlsx,,,,,,,,,,,,,,,,,
,,,,,,,,,,eir057_exp2_spa,02-26-2023_13h55.53.041,spanish_exp2,2022.1.4,MacIntel,120.0048002,,,space,3.6918,0,0,0,8,1,target,ultimate,"""Este es más fuerte"" —discriminó tímida.",discriminar,2,,,,,,,,,,,,,,,,,,,,,,,
,,,,,,,,,,eir057_exp2_spa,02-26-2023_13h55.53.041,spanish_exp2,2022.1.4,MacIntel,120.0048002,,,space,5.0672,0,1,1,11,1,target,penultimate,"""Los Osvald, culpables"" —les incrimino seguro.",incriminar,2,,,,,,,,,,,,,,,,,,,,,,,
,,,,,,,,,,eir057_exp2_spa,02-26-2023_13h55.53.041,spanish_exp2,2022.1.4,MacIntel,120.0048002,,,space,4.3438,0,2,2,5,1,target,penultimate,"""Estas son las luces nuevas"" —ilumino contenta.",iluminar,2,,,,,,,,,,,,,,,,,,,,,,,
,,,,,,,,,,eir057_exp2_spa,02-26-2023_13h55.53.041,spanish_exp2,2022.1.4,MacIntel,120.0048002,,,space,5.3247,0,3,3,3,1,target,penultimate,"""La directora Pérez renuncia a su cargo"" —disemino compungido.",diseminar,2,,,,,,,,,,,,,,,,,,,,,,,
,,,,,,,,,,eir057_exp2_spa,02-26-2023_13h55.53.041,spanish_exp2,2022.1.4,MacIntel,120.0048002,,,space,4.5362,0,4,4,0,1,target,ultimate,"""No me gustan las corridas"" —abominó con certeza.",abominar,2,,,,,,,,,,,,,,,,,,,,,,,
,,,,,,,,,,eir057_exp2_spa,02-26-2023_13h55.53.041,spanish_exp2,2022.1.4,MacIntel,120.0048002,,,space,4.9037,0,5,5,6,1,target,ultimate,"""Lee estos artículos"" —le encaminó con ilusión.",encaminar,2,,,,,,,,,,,,,,,,,,,,,,,
,,,,,,,,,,eir057_exp2_spa,02-26-2023_13h55.53.041,spanish_exp2,2022.1.4,MacIntel,120.0048002,,,space,4.8626,0,6,6,2,1,target,ultimate,"""Este es el camino más corto"" —la descaminó complacido.",descaminar,2,,,,,,,,,,,,,,,,,,,,,,,
,,,,,,,,,,eir057_exp2_spa,02-26-2023_13h55.53.041,spanish_exp2,2022.1.4,MacIntel,120.0048002,,,space,4.4647,0,7,7,7,1,target,penultimate,"""No me gusta su conducta"" —les recrimino con intensidad.",recriminar,2,,,,,,,,,,,,,,,,,,,,,,,
,,,,,,,,,,eir057_exp2_spa,02-26-2023_13h55.53.041,spanish_exp2,2022.1.4,MacIntel,120.0048002,,,space,4.2798,0,8,8,12,1,target,ultimate,"""Este insecticida es muy eficaz"" —exterminó complacida.",exterminar,2,,,,,,,,,,,,,,,,,,,,,,,
,,,,,,,,,,eir057_exp2_spa,02-26-2023_13h55.53.041,spanish_exp2,2022.1.4,MacIntel,120.0048002,,,space,4.7313,0,9,9,9,1,target,penultimate,"""No puedo estudiar matemáticas"" —me desanimo compungida.",desanimar,2,,,,,,,,,,,,,,,,,,,,,,,
,,,,,,,,,,eir057_exp2_spa,02-26-2023_13h55.53.041,spanish_exp2,2022.1.4,MacIntel,120.0048002,,,space,3.5579,0,10,10,10,1,target,ultimate,"""Tarjeta roja"" —los eliminó segura.",eliminar,2,,,,,,,,,,,,,,,,,,,,,,,
,,,,,,,,,,eir057_exp2_spa,02-26-2023_13h55.53.041,spanish_exp2,2022.1.4,MacIntel,120.0048002,,,space,4.1227,0,11,11,1,1,target,penultimate,"""La masa del átomo es medible"" —determino complacida.",determinar,2,,,,,,,,,,,,,,,,,,,,,,,
,,,,,,,,,,eir057_exp2_spa,02-26-2023_13h55.53.041,spanish_exp2,2022.1.4,MacIntel,120.0048002,,,space,4.4778,0,12,12,4,1,target,ultimate,"""Desarrollen esta ecuación"" —los examinó seriosamente.",examinar,2,,,,,,,,,,,,,,,,,,,,,,,
,,,,,,,,,,eir057_exp2_spa,02-26-2023_13h55.53.041,spanish_exp2,2022.1.4,MacIntel,120.0048002,,,space,4.5347,0,13,13,13,1,target,penultimate,"""Se llamará beta"" —lo denomino complacido.",denominar,2,,,,,,,,,,,,,,,,,,,,,,,
,,,,,,,,,,eir057_exp2_spa,02-26-2023_13h55.53.041,spanish_exp2,2022.1.4,MacIntel,120.0048002,,,,,,,,,,,,,,,0,1,1,1,1,main_trial_block2.xlsx,,,,,,,,,,,,,,,,,
,,,,,,,,,,eir057_exp2_spa,02-26-2023_13h55.53.041,spanish_exp2,2022.1.4,MacIntel,120.0048002,,,,,,,,,,,,,,,,,,,,,space,10.8637,1,0,1,0,1,,,,,,,,,,
,,,,,,,,,,eir057_exp2_spa,02-26-2023_13h55.53.041,spanish_exp2,2022.1.4,MacIntel,120.0048002,,,space,4.469,,,,,,target,ultimate,"""Entraron sin pedir permiso"" —les incriminó seguro.",incriminar,1,,,,,,,,,,,,,,0,0,0,11,1,,,,,
,,,,,,,,,,eir057_exp2_spa,02-26-2023_13h55.53.041,spanish_exp2,2022.1.4,MacIntel,120.0048002,,,space,4.2522,,,,,,target,penultimate,"""No habrá más cucarachas"" —extermino complacida.",exterminar,1,,,,,,,,,,,,,,0,1,1,12,1,,,,,
,,,,,,,,,,eir057_exp2_spa,02-26-2023_13h55.53.041,spanish_exp2,2022.1.4,MacIntel,120.0048002,,,space,4.2669,,,,,,target,ultimate,"""Retrato de un hombre triste"" —lo denominó complacido. ",denominar,1,,,,,,,,,,,,,,0,2,2,13,1,,,,,
,,,,,,,,,,eir057_exp2_spa,02-26-2023_13h55.53.041,spanish_exp2,2022.1.4,MacIntel,120.0048002,,,space,4.6825,,,,,,target,penultimate,"""Confirma la cita para mañana"" —le encamino con ilusión. ",encaminar,1,,,,,,,,,,,,,,0,3,3,6,1,,,,,
,,,,,,,,,,eir057_exp2_spa,02-26-2023_13h55.53.041,spanish_exp2,2022.1.4,MacIntel,120.0048002,,,space,4.6833,,,,,,target,ultimate,"""El presidente del estado se encuentra enfermo"" —diseminó compungido.",diseminar,1,,,,,,,,,,,,,,0,4,4,3,1,,,,,
,,,,,,,,,,eir057_exp2_spa,02-26-2023_13h55.53.041,spanish_exp2,2022.1.4,MacIntel,120.0048002,,,space,3.6745,,,,,,target,penultimate,"""No son necesarios"" —los elimino segura.",eliminar,1,,,,,,,,,,,,,,0,5,5,10,1,,,,,
,,,,,,,,,,eir057_exp2_spa,02-26-2023_13h55.53.041,spanish_exp2,2022.1.4,MacIntel,120.0048002,,,space,4.5003,,,,,,target,ultimate,"""Con la lluvia el viento es muy fuerte"" —determinó complacida.",determinar,1,,,,,,,,,,,,,,0,6,6,1,1,,,,,
,,,,,,,,,,eir057_exp2_spa,02-26-2023_13h55.53.041,spanish_exp2,2022.1.4,MacIntel,120.0048002,,,space,3.8526,,,,,,target,ultimate,"""Me robaron"" —les recriminó con intensidad.",recriminar,1,,,,,,,,,,,,,,0,7,7,7,1,,,,,
,,,,,,,,,,eir057_exp2_spa,02-26-2023_13h55.53.041,spanish_exp2,2022.1.4,MacIntel,120.0048002,,,space,4.6404,,,,,,target,penultimate,"""Este no es mi número de teléfono"" —la descamino complacido.",descaminar,1,,,,,,,,,,,,,,0,8,8,2,1,,,,,
,,,,,,,,,,eir057_exp2_spa,02-26-2023_13h55.53.041,spanish_exp2,2022.1.4,MacIntel,120.0048002,,,space,4.2529,,,,,,target,penultimate,"""Escriban la respuesta"" —los examino seriosamente.",examinar,1,,,,,,,,,,,,,,0,9,9,4,1,,,,,
,,,,,,,,,,eir057_exp2_spa,02-26-2023_13h55.53.041,spanish_exp2,2022.1.4,MacIntel,120.0048002,,,space,3.7939,,,,,,target,ultimate,"""Compré esta lámpara ayer"" —iluminó contenta.",iluminar,1,,,,,,,,,,,,,,0,10,10,5,1,,,,,
,,,,,,,,,,eir057_exp2_spa,02-26-2023_13h55.53.041,spanish_exp2,2022.1.4,MacIntel,120.0048002,,,space,4.1401,,,,,,target,penultimate,"""No me gusta el té de manzanilla"" —abomino con certeza.",abominar,1,,,,,,,,,,,,,,0,11,11,0,1,,,,,
,,,,,,,,,,eir057_exp2_spa,02-26-2023_13h55.53.041,spanish_exp2,2022.1.4,MacIntel,120.0048002,,,space,4.3756,,,,,,target,penultimate,"""Este tiene menos azúcar"" —discrimino tímida.",discriminar,1,,,,,,,,,,,,,,0,12,12,8,1,,,,,
,,,,,,,,,,eir057_exp2_spa,02-26-2023_13h55.53.041,spanish_exp2,2022.1.4,MacIntel,120.0048002,,,space,4.7297,,,,,,target,ultimate,"""No puedo cocinar sin quemar la comida"" —me desanimó compungida.",desanimar,1,,,,,,,,,,,,,,0,13,13,9,1,,,,,
,,,,,,,,,,eir057_exp2_spa,02-26-2023_13h55.53.041,spanish_exp2,2022.1.4,MacIntel,120.0048002,,,,,,,,,,,,,,,,,,,,main_trial_block1.xlsx,,,,,,,,,,,,,0,0,0,0,1
,,,,,,,,,,eir057_exp2_spa,02-26-2023_13h55.53.041,spanish_exp2,2022.1.4,MacIntel,120.0048002,,,space,4.666,,,,,,target,ultimate,"""No me gustan las corridas"" —abominó con certeza.",abominar,2,,,,,,,,,,,,,,0,0,0,0,1,,,,,
,,,,,,,,,,eir057_exp2_spa,02-26-2023_13h55.53.041,spanish_exp2,2022.1.4,MacIntel,120.0048002,,,space,4.5367,,,,,,target,ultimate,"""Desarrollen esta ecuación"" —los examinó seriosamente.",examinar,2,,,,,,,,,,,,,,0,1,1,4,1,,,,,
,,,,,,,,,,eir057_exp2_spa,02-26-2023_13h55.53.041,spanish_exp2,2022.1.4,MacIntel,120.0048002,,,space,4.567,,,,,,target,penultimate,"""No puedo estudiar matemáticas"" —me desanimo compungida.",desanimar,2,,,,,,,,,,,,,,0,2,2,9,1,,,,,
,,,,,,,,,,eir057_exp2_spa,02-26-2023_13h55.53.041,spanish_exp2,2022.1.4,MacIntel,120.0048002,,,space,4.2875,,,,,,target,penultimate,"""Los Osvald, culpables"" —les incrimino seguro.",incriminar,2,,,,,,,,,,,,,,0,3,3,11,1,,,,,
,,,,,,,,,,eir057_exp2_spa,02-26-2023_13h55.53.041,spanish_exp2,2022.1.4,MacIntel,120.0048002,,,space,4.5496,,,,,,target,penultimate,"""Estas son las luces nuevas"" —ilumino contenta.",iluminar,2,,,,,,,,,,,,,,0,4,4,5,1,,,,,
,,,,,,,,,,eir057_exp2_spa,02-26-2023_13h55.53.041,spanish_exp2,2022.1.4,MacIntel,120.0048002,,,space,4.3797,,,,,,target,ultimate,"""Este es el camino más corto"" —la descaminó complacido.",descaminar,2,,,,,,,,,,,,,,0,5,5,2,1,,,,,
,,,,,,,,,,eir057_exp2_spa,02-26-2023_13h55.53.041,spanish_exp2,2022.1.4,MacIntel,120.0048002,,,space,4.9517,,,,,,target,penultimate,"""Se llamará beta"" —lo denomino complacido.",denominar,2,,,,,,,,,,,,,,0,6,6,13,1,,,,,
,,,,,,,,,,eir057_exp2_spa,02-26-2023_13h55.53.041,spanish_exp2,2022.1.4,MacIntel,120.0048002,,,space,4.1308,,,,,,target,ultimate,"""Tarjeta roja"" —los eliminó segura.",eliminar,2,,,,,,,,,,,,,,0,7,7,10,1,,,,,
,,,,,,,,,,eir057_exp2_spa,02-26-2023_13h55.53.041,spanish_exp2,2022.1.4,MacIntel,120.0048002,,,space,4.1554,,,,,,target,ultimate,"""Este insecticida es muy eficaz"" —exterminó complacida.",exterminar,2,,,,,,,,,,,,,,0,8,8,12,1,,,,,
,,,,,,,,,,eir057_exp2_spa,02-26-2023_13h55.53.041,spanish_exp2,2022.1.4,MacIntel,120.0048002,,,space,4.241,,,,,,target,ultimate,"""Este es más fuerte"" —discriminó tímida.",discriminar,2,,,,,,,,,,,,,,0,9,9,8,1,,,,,
,,,,,,,,,,eir057_exp2_spa,02-26-2023_13h55.53.041,spanish_exp2,2022.1.4,MacIntel,120.0048002,,,space,4.5777,,,,,,target,penultimate,"""La masa del átomo es medible"" —determino complacida.",determinar,2,,,,,,,,,,,,,,0,10,10,1,1,,,,,
,,,,,,,,,,eir057_exp2_spa,02-26-2023_13h55.53.041,spanish_exp2,2022.1.4,MacIntel,120.0048002,,,space,4.9922,,,,,,target,penultimate,"""La directora Pérez renuncia a su cargo"" —disemino compungido.",diseminar,2,,,,,,,,,,,,,,0,11,11,3,1,,,,,
,,,,,,,,,,eir057_exp2_spa,02-26-2023_13h55.53.041,spanish_exp2,2022.1.4,MacIntel,120.0048002,,,space,4.8637,,,,,,target,ultimate,"""Lee estos artículos"" —le encaminó con ilusión.",encaminar,2,,,,,,,,,,,,,,0,12,12,6,1,,,,,
,,,,,,,,,,eir057_exp2_spa,02-26-2023_13h55.53.041,spanish_exp2,2022.1.4,MacIntel,120.0048002,,,space,5.3664,,,,,,target,penultimate,"""No me gusta su conducta"" —les recrimino con intensidad.",recriminar,2,,,,,,,,,,,,,,0,13,13,7,1,,,,,
,,,,,,,,,,eir057_exp2_spa,02-26-2023_13h55.53.041,spanish_exp2,2022.1.4,MacIntel,120.0048002,,,,,,,,,,,,,,,,,,,,main_trial_block2.xlsx,,,,,,,,,,,,,0,1,1,1,1
