key_resp.keys,key_resp.rt,key_resp_2.keys,key_resp_2.rt,trials_2.thisRepN,trials_2.thisTrialN,trials_2.thisN,trials_2.thisIndex,trials_2.ran,trialcatalan,participant ID,date,expName,psychopyVersion,OS,frameRate,key_resp_3.keys,key_resp_3.rt,key_resp_4.keys,key_resp_4.rt,trial_randomizer.thisRepN,trial_randomizer.thisTrialN,trial_randomizer.thisN,trial_randomizer.thisIndex,trial_randomizer.ran,fillertarget,stress,wordcatalan,verbcatalan,rand_12,block_randomizer.thisRepN,block_randomizer.thisTrialN,block_randomizer.thisN,block_randomizer.thisIndex,block_randomizer.ran,condsFile,key_resp_5.keys,key_resp_5.rt,mainTrialRep.thisRepN,mainTrialRep.thisTrialN,mainTrialRep.thisN,mainTrialRep.thisIndex,mainTrialRep.ran,trial_randomizer2.thisRepN,trial_randomizer2.thisTrialN,trial_randomizer2.thisN,trial_randomizer2.thisIndex,trial_randomizer2.ran,block_randomizer2.thisRepN,block_randomizer2.thisTrialN,block_randomizer2.thisN,block_randomizer2.thisIndex,block_randomizer2.ran
space,1628.9295,space,4.5802,0,0,0,0,1,"""Ha regalat un pastís al seu nebot"" —va pensar confiat.",elc149,03-03-2023_12h21.47.164,catalan_exp2,2022.1.4,Win32,59.94844434,,,,,,,,,,,,,,,,,,,,,,,,,,,,,,,,,,,,,
,,space,3.8734,0,1,1,2,1,"""Voldria una mica de cafè"" —pensa complaguda.",elc149,03-03-2023_12h21.47.164,catalan_exp2,2022.1.4,Win32,59.94844434,,,,,,,,,,,,,,,,,,,,,,,,,,,,,,,,,,,,,
,,space,3.2252,0,2,2,3,1,"""T'estimo molt"" —va sospirar content.",elc149,03-03-2023_12h21.47.164,catalan_exp2,2022.1.4,Win32,59.94844434,,,,,,,,,,,,,,,,,,,,,,,,,,,,,,,,,,,,,
,,space,3.6434,0,3,3,1,1,"""Depèn de la temporada"" —explica seriòs.",elc149,03-03-2023_12h21.47.164,catalan_exp2,2022.1.4,Win32,59.94844434,,,,,,,,,,,,,,,,,,,,,,,,,,,,,,,,,,,,,
,,,,,,,,,,elc149,03-03-2023_12h21.47.164,catalan_exp2,2022.1.4,Win32,59.94844434,space,4.1239,space,4.022,0,0,0,4,1,target,penultimate,"""Escriguin la resposta"" —els examina clarament.",examinar,1,,,,,,,,,,,,,,,,,,,,,,,
,,,,,,,,,,elc149,03-03-2023_12h21.47.164,catalan_exp2,2022.1.4,Win32,59.94844434,,,space,4.0246,0,1,1,13,1,target,ultimate,"""Retrat d'un home trist"" —va denominar concret.",denominar,1,,,,,,,,,,,,,,,,,,,,,,,
,,,,,,,,,,elc149,03-03-2023_12h21.47.164,catalan_exp2,2022.1.4,Win32,59.94844434,,,space,4.7434,0,2,2,1,1,target,ultimate,"""Amb la pluja el vent és molt fort"" —va determinar complaguda.",determinar,1,,,,,,,,,,,,,,,,,,,,,,,
,,,,,,,,,,elc149,03-03-2023_12h21.47.164,catalan_exp2,2022.1.4,Win32,59.94844434,,,space,3.4822,0,3,3,10,1,target,penultimate,"""No són necessaris"" —elimina segura.",eliminar,1,,,,,,,,,,,,,,,,,,,,,,,
,,,,,,,,,,elc149,03-03-2023_12h21.47.164,catalan_exp2,2022.1.4,Win32,59.94844434,,,space,4.1036,0,4,4,12,1,target,penultimate,"""No hi haurà més bestioles"" —extermina complaguda.",exterminar,1,,,,,,,,,,,,,,,,,,,,,,,
,,,,,,,,,,elc149,03-03-2023_12h21.47.164,catalan_exp2,2022.1.4,Win32,59.94844434,,,space,4.1634,0,5,5,8,1,target,penultimate,"""Aquest té menys sucre"" —discrimina tímid.",discriminar,1,,,,,,,,,,,,,,,,,,,,,,,
,,,,,,,,,,elc149,03-03-2023_12h21.47.164,catalan_exp2,2022.1.4,Win32,59.94844434,,,space,4.3521,0,6,6,0,1,target,penultimate,"""No m'agrada el te de camamilla"" —abomina plena.",abominar,1,,,,,,,,,,,,,,,,,,,,,,,
,,,,,,,,,,elc149,03-03-2023_12h21.47.164,catalan_exp2,2022.1.4,Win32,59.94844434,,,space,4.1241,0,7,7,7,1,target,ultimate,"""És culpa teva"" —li va recriminar seriosa.",recriminar,1,,,,,,,,,,,,,,,,,,,,,,,
,,,,,,,,,,elc149,03-03-2023_12h21.47.164,catalan_exp2,2022.1.4,Win32,59.94844434,,,space,3.7921,0,8,8,5,1,target,ultimate,"""Acabo de comprar aquest llum"" —va il·luminar content.",illuminar,1,,,,,,,,,,,,,,,,,,,,,,,
,,,,,,,,,,elc149,03-03-2023_12h21.47.164,catalan_exp2,2022.1.4,Win32,59.94844434,,,space,4.9605,0,9,9,11,1,target,ultimate,"""Van entrar sense demanar permís"" —les va incriminar confiat.",incriminar,1,,,,,,,,,,,,,,,,,,,,,,,
,,,,,,,,,,elc149,03-03-2023_12h21.47.164,catalan_exp2,2022.1.4,Win32,59.94844434,,,space,4.5345,0,10,10,6,1,target,penultimate,"""Confirmin la cita per demà"" —les encamina tímida.",encaminar,1,,,,,,,,,,,,,,,,,,,,,,,
,,,,,,,,,,elc149,03-03-2023_12h21.47.164,catalan_exp2,2022.1.4,Win32,59.94844434,,,space,4.8449,0,11,11,3,1,target,ultimate,"""El president de l'estat està malalt"" —va disseminar prematura.",disseminar,1,,,,,,,,,,,,,,,,,,,,,,,
,,,,,,,,,,elc149,03-03-2023_12h21.47.164,catalan_exp2,2022.1.4,Win32,59.94844434,,,space,4.7052,0,12,12,9,1,target,ultimate,"""No puc cuinar sense cremar el menjar"" —es va desanimar seriós.",desanimar,1,,,,,,,,,,,,,,,,,,,,,,,
,,,,,,,,,,elc149,03-03-2023_12h21.47.164,catalan_exp2,2022.1.4,Win32,59.94844434,,,space,4.6521,0,13,13,2,1,target,penultimate,"""Aquest no és el meu número de telèfon"" —la descamina complagut.",descaminar,1,,,,,,,,,,,,,,,,,,,,,,,
,,,,,,,,,,elc149,03-03-2023_12h21.47.164,catalan_exp2,2022.1.4,Win32,59.94844434,,,,,,,,,,,,,,,0,0,0,0,1,main_trial_block1.xlsx,,,,,,,,,,,,,,,,,
,,,,,,,,,,elc149,03-03-2023_12h21.47.164,catalan_exp2,2022.1.4,Win32,59.94844434,,,space,3.936,0,0,0,13,1,target,penultimate,"""Aquest gen es diu beta"" —denomina concret.",denominar,2,,,,,,,,,,,,,,,,,,,,,,,
,,,,,,,,,,elc149,03-03-2023_12h21.47.164,catalan_exp2,2022.1.4,Win32,59.94844434,,,space,4.0539,0,1,1,6,1,target,ultimate,"""Llegiu aquests articles"" —les va encaminar tímida.",encaminar,2,,,,,,,,,,,,,,,,,,,,,,,
,,,,,,,,,,elc149,03-03-2023_12h21.47.164,catalan_exp2,2022.1.4,Win32,59.94844434,,,space,4.2819,0,2,2,7,1,target,penultimate,"""No m'agrada que em truquis"" —li recrimina seriosa.",recriminar,2,,,,,,,,,,,,,,,,,,,,,,,
,,,,,,,,,,elc149,03-03-2023_12h21.47.164,catalan_exp2,2022.1.4,Win32,59.94844434,,,space,4.5402,0,3,3,3,1,target,penultimate,"""La senyora Martí renuncia al seu càrrec"" —dissemina prematura.",disseminar,2,,,,,,,,,,,,,,,,,,,,,,,
,,,,,,,,,,elc149,03-03-2023_12h21.47.164,catalan_exp2,2022.1.4,Win32,59.94844434,,,space,3.7966,0,4,4,8,1,target,ultimate,"""Aquest és més fort"" —va discriminar tímid.",discriminar,2,,,,,,,,,,,,,,,,,,,,,,,
,,,,,,,,,,elc149,03-03-2023_12h21.47.164,catalan_exp2,2022.1.4,Win32,59.94844434,,,space,4.6156,0,5,5,2,1,target,ultimate,"""Aquest és el camí més curt"" —la va descaminar complagut.",descaminar,2,,,,,,,,,,,,,,,,,,,,,,,
,,,,,,,,,,elc149,03-03-2023_12h21.47.164,catalan_exp2,2022.1.4,Win32,59.94844434,,,space,3.5746,0,6,6,5,1,target,penultimate,"""Bon Nadal a tots"" —il·lumina content.",illuminar,2,,,,,,,,,,,,,,,,,,,,,,,
,,,,,,,,,,elc149,03-03-2023_12h21.47.164,catalan_exp2,2022.1.4,Win32,59.94844434,,,space,4.0889,0,7,7,9,1,target,penultimate,"""No passaré mai l'examen"" —es desanima seriós.",desanimar,2,,,,,,,,,,,,,,,,,,,,,,,
,,,,,,,,,,elc149,03-03-2023_12h21.47.164,catalan_exp2,2022.1.4,Win32,59.94844434,,,space,4.4187,0,8,8,11,1,target,penultimate,"""Vostès són les culpables"" —les incrimina confiat.",incriminar,2,,,,,,,,,,,,,,,,,,,,,,,
,,,,,,,,,,elc149,03-03-2023_12h21.47.164,catalan_exp2,2022.1.4,Win32,59.94844434,,,space,4.2752,0,9,9,12,1,target,ultimate,"""Aquest verí va molt bé"" —va exterminar complaguda.",exterminar,2,,,,,,,,,,,,,,,,,,,,,,,
,,,,,,,,,,elc149,03-03-2023_12h21.47.164,catalan_exp2,2022.1.4,Win32,59.94844434,,,space,4.1043,0,10,10,4,1,target,ultimate,"""Facin aquesta equació"" —els va examinar clarament.",examinar,2,,,,,,,,,,,,,,,,,,,,,,,
,,,,,,,,,,elc149,03-03-2023_12h21.47.164,catalan_exp2,2022.1.4,Win32,59.94844434,,,space,5.0566,0,11,11,0,1,target,ultimate,"""No m'agraden gens les curses de braus"" —va abominar plena.",abominar,2,,,,,,,,,,,,,,,,,,,,,,,
,,,,,,,,,,elc149,03-03-2023_12h21.47.164,catalan_exp2,2022.1.4,Win32,59.94844434,,,space,4.1524,0,12,12,10,1,target,ultimate,"""Érem a casa a l'hora del crim"" —va eliminar segura.",eliminar,2,,,,,,,,,,,,,,,,,,,,,,,
,,,,,,,,,,elc149,03-03-2023_12h21.47.164,catalan_exp2,2022.1.4,Win32,59.94844434,,,space,4.7647,0,13,13,1,1,target,penultimate,"""La massa de l'àtom és mesurable"" —determina complaguda.",determinar,2,,,,,,,,,,,,,,,,,,,,,,,
,,,,,,,,,,elc149,03-03-2023_12h21.47.164,catalan_exp2,2022.1.4,Win32,59.94844434,,,,,,,,,,,,,,,0,1,1,1,1,main_trial_block2.xlsx,,,,,,,,,,,,,,,,,
,,,,,,,,,,elc149,03-03-2023_12h21.47.164,catalan_exp2,2022.1.4,Win32,59.94844434,,,,,,,,,,,,,,,,,,,,,space,20.5385,0,0,0,0,1,,,,,,,,,,
,,,,,,,,,,elc149,03-03-2023_12h21.47.164,catalan_exp2,2022.1.4,Win32,59.94844434,,,space,3.9781,0,0,0,12,1,target,penultimate,"""No hi haurà més bestioles"" —extermina complaguda.",exterminar,1,,,,,,,,,,,,,,,,,,,,,,,
,,,,,,,,,,elc149,03-03-2023_12h21.47.164,catalan_exp2,2022.1.4,Win32,59.94844434,,,space,4.5708,0,1,1,11,1,target,ultimate,"""Van entrar sense demanar permís"" —les va incriminar confiat.",incriminar,1,,,,,,,,,,,,,,,,,,,,,,,
,,,,,,,,,,elc149,03-03-2023_12h21.47.164,catalan_exp2,2022.1.4,Win32,59.94844434,,,space,4.0216,0,2,2,0,1,target,penultimate,"""No m'agrada el te de camamilla"" —abomina plena.",abominar,1,,,,,,,,,,,,,,,,,,,,,,,
,,,,,,,,,,elc149,03-03-2023_12h21.47.164,catalan_exp2,2022.1.4,Win32,59.94844434,,,space,4.4425,0,3,3,2,1,target,penultimate,"""Aquest no és el meu número de telèfon"" —la descamina complagut.",descaminar,1,,,,,,,,,,,,,,,,,,,,,,,
,,,,,,,,,,elc149,03-03-2023_12h21.47.164,catalan_exp2,2022.1.4,Win32,59.94844434,,,space,4.088,0,4,4,6,1,target,penultimate,"""Confirmin la cita per demà"" —les encamina tímida.",encaminar,1,,,,,,,,,,,,,,,,,,,,,,,
,,,,,,,,,,elc149,03-03-2023_12h21.47.164,catalan_exp2,2022.1.4,Win32,59.94844434,,,space,4.5647,0,5,5,1,1,target,ultimate,"""Amb la pluja el vent és molt fort"" —va determinar complaguda.",determinar,1,,,,,,,,,,,,,,,,,,,,,,,
,,,,,,,,,,elc149,03-03-2023_12h21.47.164,catalan_exp2,2022.1.4,Win32,59.94844434,,,space,3.6035,0,6,6,10,1,target,penultimate,"""No són necessaris"" —elimina segura.",eliminar,1,,,,,,,,,,,,,,,,,,,,,,,
,,,,,,,,,,elc149,03-03-2023_12h21.47.164,catalan_exp2,2022.1.4,Win32,59.94844434,,,space,3.9587,0,7,7,7,1,target,ultimate,"""És culpa teva"" —li va recriminar seriosa.",recriminar,1,,,,,,,,,,,,,,,,,,,,,,,
,,,,,,,,,,elc149,03-03-2023_12h21.47.164,catalan_exp2,2022.1.4,Win32,59.94844434,,,space,4.3684,0,8,8,9,1,target,ultimate,"""No puc cuinar sense cremar el menjar"" —es va desanimar seriós.",desanimar,1,,,,,,,,,,,,,,,,,,,,,,,
,,,,,,,,,,elc149,03-03-2023_12h21.47.164,catalan_exp2,2022.1.4,Win32,59.94844434,,,space,4.0396,0,9,9,8,1,target,penultimate,"""Aquest té menys sucre"" —discrimina tímid.",discriminar,1,,,,,,,,,,,,,,,,,,,,,,,
,,,,,,,,,,elc149,03-03-2023_12h21.47.164,catalan_exp2,2022.1.4,Win32,59.94844434,,,space,3.9977,0,10,10,5,1,target,ultimate,"""Acabo de comprar aquest llum"" —va il·luminar content.",illuminar,1,,,,,,,,,,,,,,,,,,,,,,,
,,,,,,,,,,elc149,03-03-2023_12h21.47.164,catalan_exp2,2022.1.4,Win32,59.94844434,,,space,4.9975,0,11,11,3,1,target,ultimate,"""El president de l'estat està malalt"" —va disseminar prematura.",disseminar,1,,,,,,,,,,,,,,,,,,,,,,,
,,,,,,,,,,elc149,03-03-2023_12h21.47.164,catalan_exp2,2022.1.4,Win32,59.94844434,,,space,3.9803,0,12,12,4,1,target,penultimate,"""Escriguin la resposta"" —els examina clarament.",examinar,1,,,,,,,,,,,,,,,,,,,,,,,
,,,,,,,,,,elc149,03-03-2023_12h21.47.164,catalan_exp2,2022.1.4,Win32,59.94844434,,,space,4.1407,0,13,13,13,1,target,ultimate,"""Retrat d'un home trist"" —va denominar concret.",denominar,1,,,,,,,,,,,,,,,,,,,,,,,
,,,,,,,,,,elc149,03-03-2023_12h21.47.164,catalan_exp2,2022.1.4,Win32,59.94844434,,,,,,,,,,,,,,,0,0,0,0,1,main_trial_block1.xlsx,,,,,,,,,,,,,,,,,
,,,,,,,,,,elc149,03-03-2023_12h21.47.164,catalan_exp2,2022.1.4,Win32,59.94844434,,,space,4.7722,0,0,0,0,1,target,ultimate,"""No m'agraden gens les curses de braus"" —va abominar plena.",abominar,2,,,,,,,,,,,,,,,,,,,,,,,
,,,,,,,,,,elc149,03-03-2023_12h21.47.164,catalan_exp2,2022.1.4,Win32,59.94844434,,,space,4.4863,0,1,1,1,1,target,penultimate,"""La massa de l'àtom és mesurable"" —determina complaguda.",determinar,2,,,,,,,,,,,,,,,,,,,,,,,
,,,,,,,,,,elc149,03-03-2023_12h21.47.164,catalan_exp2,2022.1.4,Win32,59.94844434,,,space,4.1356,0,2,2,8,1,target,ultimate,"""Aquest és més fort"" —va discriminar tímid.",discriminar,2,,,,,,,,,,,,,,,,,,,,,,,
,,,,,,,,,,elc149,03-03-2023_12h21.47.164,catalan_exp2,2022.1.4,Win32,59.94844434,,,space,4.1713,0,3,3,7,1,target,penultimate,"""No m'agrada que em truquis"" —li recrimina seriosa.",recriminar,2,,,,,,,,,,,,,,,,,,,,,,,
,,,,,,,,,,elc149,03-03-2023_12h21.47.164,catalan_exp2,2022.1.4,Win32,59.94844434,,,space,4.467,0,4,4,6,1,target,ultimate,"""Llegiu aquests articles"" —les va encaminar tímida.",encaminar,2,,,,,,,,,,,,,,,,,,,,,,,
,,,,,,,,,,elc149,03-03-2023_12h21.47.164,catalan_exp2,2022.1.4,Win32,59.94844434,,,space,4.2893,0,5,5,4,1,target,ultimate,"""Facin aquesta equació"" —els va examinar clarament.",examinar,2,,,,,,,,,,,,,,,,,,,,,,,
,,,,,,,,,,elc149,03-03-2023_12h21.47.164,catalan_exp2,2022.1.4,Win32,59.94844434,,,space,4.1413,0,6,6,9,1,target,penultimate,"""No passaré mai l'examen"" —es desanima seriós.",desanimar,2,,,,,,,,,,,,,,,,,,,,,,,
,,,,,,,,,,elc149,03-03-2023_12h21.47.164,catalan_exp2,2022.1.4,Win32,59.94844434,,,space,3.7965,0,7,7,5,1,target,penultimate,"""Bon Nadal a tots"" —il·lumina content.",illuminar,2,,,,,,,,,,,,,,,,,,,,,,,
,,,,,,,,,,elc149,03-03-2023_12h21.47.164,catalan_exp2,2022.1.4,Win32,59.94844434,,,space,4.3631,0,8,8,10,1,target,ultimate,"""Érem a casa a l'hora del crim"" —va eliminar segura.",eliminar,2,,,,,,,,,,,,,,,,,,,,,,,
,,,,,,,,,,elc149,03-03-2023_12h21.47.164,catalan_exp2,2022.1.4,Win32,59.94844434,,,space,4.6119,0,9,9,13,1,target,penultimate,"""Aquest gen es diu beta"" —denomina concret.",denominar,2,,,,,,,,,,,,,,,,,,,,,,,
,,,,,,,,,,elc149,03-03-2023_12h21.47.164,catalan_exp2,2022.1.4,Win32,59.94844434,,,space,4.292,0,10,10,11,1,target,penultimate,"""Vostès són les culpables"" —les incrimina confiat.",incriminar,2,,,,,,,,,,,,,,,,,,,,,,,
,,,,,,,,,,elc149,03-03-2023_12h21.47.164,catalan_exp2,2022.1.4,Win32,59.94844434,,,space,4.387,0,11,11,12,1,target,ultimate,"""Aquest verí va molt bé"" —va exterminar complaguda.",exterminar,2,,,,,,,,,,,,,,,,,,,,,,,
,,,,,,,,,,elc149,03-03-2023_12h21.47.164,catalan_exp2,2022.1.4,Win32,59.94844434,,,space,4.4141,0,12,12,2,1,target,ultimate,"""Aquest és el camí més curt"" —la va descaminar complagut.",descaminar,2,,,,,,,,,,,,,,,,,,,,,,,
,,,,,,,,,,elc149,03-03-2023_12h21.47.164,catalan_exp2,2022.1.4,Win32,59.94844434,,,space,4.9946,0,13,13,3,1,target,penultimate,"""La senyora Martí renuncia al seu càrrec"" —dissemina prematura.",disseminar,2,,,,,,,,,,,,,,,,,,,,,,,
,,,,,,,,,,elc149,03-03-2023_12h21.47.164,catalan_exp2,2022.1.4,Win32,59.94844434,,,,,,,,,,,,,,,0,1,1,1,1,main_trial_block2.xlsx,,,,,,,,,,,,,,,,,
,,,,,,,,,,elc149,03-03-2023_12h21.47.164,catalan_exp2,2022.1.4,Win32,59.94844434,,,,,,,,,,,,,,,,,,,,,space,19.9121,1,0,1,0,1,,,,,,,,,,
,,,,,,,,,,elc149,03-03-2023_12h21.47.164,catalan_exp2,2022.1.4,Win32,59.94844434,,,space,4.0132,,,,,,target,penultimate,"""No m'agrada el te de camamilla"" —abomina plena.",abominar,1,,,,,,,,,,,,,,0,0,0,0,1,,,,,
,,,,,,,,,,elc149,03-03-2023_12h21.47.164,catalan_exp2,2022.1.4,Win32,59.94844434,,,space,3.6863,,,,,,target,penultimate,"""Aquest té menys sucre"" —discrimina tímid.",discriminar,1,,,,,,,,,,,,,,0,1,1,8,1,,,,,
,,,,,,,,,,elc149,03-03-2023_12h21.47.164,catalan_exp2,2022.1.4,Win32,59.94844434,,,space,4.6207,,,,,,target,penultimate,"""Aquest no és el meu número de telèfon"" —la descamina complagut.",descaminar,1,,,,,,,,,,,,,,0,2,2,2,1,,,,,
,,,,,,,,,,elc149,03-03-2023_12h21.47.164,catalan_exp2,2022.1.4,Win32,59.94844434,,,space,4.0215,,,,,,target,penultimate,"""No hi haurà més bestioles"" —extermina complaguda.",exterminar,1,,,,,,,,,,,,,,0,3,3,12,1,,,,,
,,,,,,,,,,elc149,03-03-2023_12h21.47.164,catalan_exp2,2022.1.4,Win32,59.94844434,,,space,4.535,,,,,,target,ultimate,"""Amb la pluja el vent és molt fort"" —va determinar complaguda.",determinar,1,,,,,,,,,,,,,,0,4,4,1,1,,,,,
,,,,,,,,,,elc149,03-03-2023_12h21.47.164,catalan_exp2,2022.1.4,Win32,59.94844434,,,space,4.5579,,,,,,target,ultimate,"""No puc cuinar sense cremar el menjar"" —es va desanimar seriós.",desanimar,1,,,,,,,,,,,,,,0,5,5,9,1,,,,,
,,,,,,,,,,elc149,03-03-2023_12h21.47.164,catalan_exp2,2022.1.4,Win32,59.94844434,,,space,3.686,,,,,,target,ultimate,"""És culpa teva"" —li va recriminar seriosa.",recriminar,1,,,,,,,,,,,,,,0,6,6,7,1,,,,,
,,,,,,,,,,elc149,03-03-2023_12h21.47.164,catalan_exp2,2022.1.4,Win32,59.94844434,,,space,3.9361,,,,,,target,penultimate,"""Confirmin la cita per demà"" —les encamina tímida.",encaminar,1,,,,,,,,,,,,,,0,7,7,6,1,,,,,
,,,,,,,,,,elc149,03-03-2023_12h21.47.164,catalan_exp2,2022.1.4,Win32,59.94844434,,,space,4.0028,,,,,,target,penultimate,"""Escriguin la resposta"" —els examina clarament.",examinar,1,,,,,,,,,,,,,,0,8,8,4,1,,,,,
,,,,,,,,,,elc149,03-03-2023_12h21.47.164,catalan_exp2,2022.1.4,Win32,59.94844434,,,space,4.4696,,,,,,target,ultimate,"""El president de l'estat està malalt"" —va disseminar prematura.",disseminar,1,,,,,,,,,,,,,,0,9,9,3,1,,,,,
,,,,,,,,,,elc149,03-03-2023_12h21.47.164,catalan_exp2,2022.1.4,Win32,59.94844434,,,space,4.6111,,,,,,target,ultimate,"""Van entrar sense demanar permís"" —les va incriminar confiat.",incriminar,1,,,,,,,,,,,,,,0,10,10,11,1,,,,,
,,,,,,,,,,elc149,03-03-2023_12h21.47.164,catalan_exp2,2022.1.4,Win32,59.94844434,,,space,3.9385,,,,,,target,ultimate,"""Retrat d'un home trist"" —va denominar concret.",denominar,1,,,,,,,,,,,,,,0,11,11,13,1,,,,,
,,,,,,,,,,elc149,03-03-2023_12h21.47.164,catalan_exp2,2022.1.4,Win32,59.94844434,,,space,3.8785,,,,,,target,ultimate,"""Acabo de comprar aquest llum"" —va il·luminar content.",illuminar,1,,,,,,,,,,,,,,0,12,12,5,1,,,,,
,,,,,,,,,,elc149,03-03-2023_12h21.47.164,catalan_exp2,2022.1.4,Win32,59.94844434,,,space,3.5325,,,,,,target,penultimate,"""No són necessaris"" —elimina segura.",eliminar,1,,,,,,,,,,,,,,0,13,13,10,1,,,,,
,,,,,,,,,,elc149,03-03-2023_12h21.47.164,catalan_exp2,2022.1.4,Win32,59.94844434,,,,,,,,,,,,,,,,,,,,main_trial_block1.xlsx,,,,,,,,,,,,,0,0,0,0,1
,,,,,,,,,,elc149,03-03-2023_12h21.47.164,catalan_exp2,2022.1.4,Win32,59.94844434,,,space,4.6336,,,,,,target,penultimate,"""La senyora Martí renuncia al seu càrrec"" —dissemina prematura.",disseminar,2,,,,,,,,,,,,,,0,0,0,3,1,,,,,
,,,,,,,,,,elc149,03-03-2023_12h21.47.164,catalan_exp2,2022.1.4,Win32,59.94844434,,,space,4.1125,,,,,,target,penultimate,"""No passaré mai l'examen"" —es desanima seriós.",desanimar,2,,,,,,,,,,,,,,0,1,1,9,1,,,,,
,,,,,,,,,,elc149,03-03-2023_12h21.47.164,catalan_exp2,2022.1.4,Win32,59.94844434,,,space,3.4479,,,,,,target,penultimate,"""Bon Nadal a tots"" —il·lumina content.",illuminar,2,,,,,,,,,,,,,,0,2,2,5,1,,,,,
,,,,,,,,,,elc149,03-03-2023_12h21.47.164,catalan_exp2,2022.1.4,Win32,59.94844434,,,space,4.0067,,,,,,target,ultimate,"""Aquest és el camí més curt"" —la va descaminar complagut.",descaminar,2,,,,,,,,,,,,,,0,3,3,2,1,,,,,
,,,,,,,,,,elc149,03-03-2023_12h21.47.164,catalan_exp2,2022.1.4,Win32,59.94844434,,,space,3.7928,,,,,,target,ultimate,"""Facin aquesta equació"" —els va examinar clarament.",examinar,2,,,,,,,,,,,,,,0,4,4,4,1,,,,,
,,,,,,,,,,elc149,03-03-2023_12h21.47.164,catalan_exp2,2022.1.4,Win32,59.94844434,,,space,4.0873,,,,,,target,penultimate,"""La massa de l'àtom és mesurable"" —determina complaguda.",determinar,2,,,,,,,,,,,,,,0,5,5,1,1,,,,,
,,,,,,,,,,elc149,03-03-2023_12h21.47.164,catalan_exp2,2022.1.4,Win32,59.94844434,,,space,4.0675,,,,,,target,penultimate,"""Aquest gen es diu beta"" —denomina concret.",denominar,2,,,,,,,,,,,,,,0,6,6,13,1,,,,,
,,,,,,,,,,elc149,03-03-2023_12h21.47.164,catalan_exp2,2022.1.4,Win32,59.94844434,,,space,4.7015,,,,,,target,ultimate,"""No m'agraden gens les curses de braus"" —va abominar plena.",abominar,2,,,,,,,,,,,,,,0,7,7,0,1,,,,,
,,,,,,,,,,elc149,03-03-2023_12h21.47.164,catalan_exp2,2022.1.4,Win32,59.94844434,,,space,4.1498,,,,,,target,ultimate,"""Aquest és més fort"" —va discriminar tímid.",discriminar,2,,,,,,,,,,,,,,0,8,8,8,1,,,,,
,,,,,,,,,,elc149,03-03-2023_12h21.47.164,catalan_exp2,2022.1.4,Win32,59.94844434,,,space,3.9777,,,,,,target,ultimate,"""Aquest verí va molt bé"" —va exterminar complaguda.",exterminar,2,,,,,,,,,,,,,,0,9,9,12,1,,,,,
,,,,,,,,,,elc149,03-03-2023_12h21.47.164,catalan_exp2,2022.1.4,Win32,59.94844434,,,space,4.035,,,,,,target,penultimate,"""No m'agrada que em truquis"" —li recrimina seriosa.",recriminar,2,,,,,,,,,,,,,,0,10,10,7,1,,,,,
,,,,,,,,,,elc149,03-03-2023_12h21.47.164,catalan_exp2,2022.1.4,Win32,59.94844434,,,space,4.2335,,,,,,target,ultimate,"""Llegiu aquests articles"" —les va encaminar tímida.",encaminar,2,,,,,,,,,,,,,,0,11,11,6,1,,,,,
,,,,,,,,,,elc149,03-03-2023_12h21.47.164,catalan_exp2,2022.1.4,Win32,59.94844434,,,space,4.2358,,,,,,target,penultimate,"""Vostès són les culpables"" —les incrimina confiat.",incriminar,2,,,,,,,,,,,,,,0,12,12,11,1,,,,,
,,,,,,,,,,elc149,03-03-2023_12h21.47.164,catalan_exp2,2022.1.4,Win32,59.94844434,,,space,3.8794,,,,,,target,ultimate,"""Érem a casa a l'hora del crim"" —va eliminar segura.",eliminar,2,,,,,,,,,,,,,,0,13,13,10,1,,,,,
,,,,,,,,,,elc149,03-03-2023_12h21.47.164,catalan_exp2,2022.1.4,Win32,59.94844434,,,,,,,,,,,,,,,,,,,,main_trial_block2.xlsx,,,,,,,,,,,,,0,1,1,1,1
