key_resp.keys,key_resp.rt,key_resp_2.keys,key_resp_2.rt,trials_2.thisRepN,trials_2.thisTrialN,trials_2.thisN,trials_2.thisIndex,trials_2.ran,trialspanish,participant ID,date,expName,psychopyVersion,OS,frameRate,key_resp_3.keys,key_resp_3.rt,key_resp_4.keys,key_resp_4.rt,trials_randomizer.thisRepN,trials_randomizer.thisTrialN,trials_randomizer.thisN,trials_randomizer.thisIndex,trials_randomizer.ran,fillertarget,stress,wordspanish,verbspanish,rand_12,block_randomizer.thisRepN,block_randomizer.thisTrialN,block_randomizer.thisN,block_randomizer.thisIndex,block_randomizer.ran,condsFile,key_resp_5.keys,key_resp_5.rt,mainTrialReps.thisRepN,mainTrialReps.thisTrialN,mainTrialReps.thisN,mainTrialReps.thisIndex,mainTrialReps.ran,trials_randomizer2.thisRepN,trials_randomizer2.thisTrialN,trials_randomizer2.thisN,trials_randomizer2.thisIndex,trials_randomizer2.ran,block_randomizer2.thisRepN,block_randomizer2.thisTrialN,block_randomizer2.thisN,block_randomizer2.thisIndex,block_randomizer2.ran
space,1587.0531,space,4.2299,0,0,0,3,1,"""Te quiero mucho"" —suspiró contenta Teresa.",elc149,03-10-2023_08h53.59.096,spanish_exp2,2022.1.4,Win32,61.06870229,,,,,,,,,,,,,,,,,,,,,,,,,,,,,,,,,,,,,
,,space,3.3196,0,1,1,2,1,"""Me gustaría un café"" —pienso complacido.",elc149,03-10-2023_08h53.59.096,spanish_exp2,2022.1.4,Win32,61.06870229,,,,,,,,,,,,,,,,,,,,,,,,,,,,,,,,,,,,,
,,space,3.2933,0,2,2,1,1,"""Depende del clima"" —respondió claramente.",elc149,03-10-2023_08h53.59.096,spanish_exp2,2022.1.4,Win32,61.06870229,,,,,,,,,,,,,,,,,,,,,,,,,,,,,,,,,,,,,
,,space,3.9434,0,3,3,0,1,"""Le regaló una camiseta a su sobrino"" —digo contento.",elc149,03-10-2023_08h53.59.096,spanish_exp2,2022.1.4,Win32,61.06870229,,,,,,,,,,,,,,,,,,,,,,,,,,,,,,,,,,,,,
,,,,,,,,,,elc149,03-10-2023_08h53.59.096,spanish_exp2,2022.1.4,Win32,61.06870229,space,0.8728,space,4.5721,0,0,0,1,1,target,penultimate,"""La masa del átomo es medible"" —determino complacida.",determinar,2,,,,,,,,,,,,,,,,,,,,,,,
,,,,,,,,,,elc149,03-10-2023_08h53.59.096,spanish_exp2,2022.1.4,Win32,61.06870229,,,space,4.3233,0,1,1,12,1,target,ultimate,"""Este insecticida es muy eficaz"" —exterminó complacida.",exterminar,2,,,,,,,,,,,,,,,,,,,,,,,
,,,,,,,,,,elc149,03-10-2023_08h53.59.096,spanish_exp2,2022.1.4,Win32,61.06870229,,,space,4.527,0,2,2,2,1,target,ultimate,"""Este es el camino más corto"" —la descaminó complacido.",descaminar,2,,,,,,,,,,,,,,,,,,,,,,,
,,,,,,,,,,elc149,03-10-2023_08h53.59.096,spanish_exp2,2022.1.4,Win32,61.06870229,,,space,3.7157,0,3,3,5,1,target,penultimate,"""Estas son las luces nuevas"" —ilumino contenta.",iluminar,2,,,,,,,,,,,,,,,,,,,,,,,
,,,,,,,,,,elc149,03-10-2023_08h53.59.096,spanish_exp2,2022.1.4,Win32,61.06870229,,,space,3.5392,0,4,4,10,1,target,ultimate,"""Tarjeta roja"" —los eliminó segura.",eliminar,2,,,,,,,,,,,,,,,,,,,,,,,
,,,,,,,,,,elc149,03-10-2023_08h53.59.096,spanish_exp2,2022.1.4,Win32,61.06870229,,,space,4.1989,0,5,5,9,1,target,penultimate,"""No puedo estudiar matemáticas"" —me desanimo compungida.",desanimar,2,,,,,,,,,,,,,,,,,,,,,,,
,,,,,,,,,,elc149,03-10-2023_08h53.59.096,spanish_exp2,2022.1.4,Win32,61.06870229,,,space,4.6546,0,6,6,3,1,target,penultimate,"""La directora Pérez renuncia a su cargo"" —disemino compungido.",diseminar,2,,,,,,,,,,,,,,,,,,,,,,,
,,,,,,,,,,elc149,03-10-2023_08h53.59.096,spanish_exp2,2022.1.4,Win32,61.06870229,,,space,4.3165,0,7,7,7,1,target,penultimate,"""No me gusta su conducta"" —les recrimino con intensidad.",recriminar,2,,,,,,,,,,,,,,,,,,,,,,,
,,,,,,,,,,elc149,03-10-2023_08h53.59.096,spanish_exp2,2022.1.4,Win32,61.06870229,,,space,4.0589,0,8,8,6,1,target,ultimate,"""Lee estos artículos"" —le encaminó con ilusión.",encaminar,2,,,,,,,,,,,,,,,,,,,,,,,
,,,,,,,,,,elc149,03-10-2023_08h53.59.096,spanish_exp2,2022.1.4,Win32,61.06870229,,,space,5.56,0,9,9,11,1,target,penultimate,"""Los Osvald, culpables"" —les incrimino seguro.",incriminar,2,,,,,,,,,,,,,,,,,,,,,,,
,,,,,,,,,,elc149,03-10-2023_08h53.59.096,spanish_exp2,2022.1.4,Win32,61.06870229,,,space,3.9737,0,10,10,0,1,target,ultimate,"""No me gustan las corridas"" —abominó con certeza.",abominar,2,,,,,,,,,,,,,,,,,,,,,,,
,,,,,,,,,,elc149,03-10-2023_08h53.59.096,spanish_exp2,2022.1.4,Win32,61.06870229,,,space,4.5013,0,11,11,4,1,target,ultimate,"""Desarrollen esta ecuación"" —los examinó seriamente.",examinar,2,,,,,,,,,,,,,,,,,,,,,,,
,,,,,,,,,,elc149,03-10-2023_08h53.59.096,spanish_exp2,2022.1.4,Win32,61.06870229,,,space,3.5341,0,12,12,8,1,target,ultimate,"""Este es más fuerte"" —discriminó tímida.",discriminar,2,,,,,,,,,,,,,,,,,,,,,,,
,,,,,,,,,,elc149,03-10-2023_08h53.59.096,spanish_exp2,2022.1.4,Win32,61.06870229,,,space,3.386,0,13,13,13,1,target,penultimate,"""Se llamará beta"" —lo denomino complacido.",denominar,2,,,,,,,,,,,,,,,,,,,,,,,
,,,,,,,,,,elc149,03-10-2023_08h53.59.096,spanish_exp2,2022.1.4,Win32,61.06870229,,,,,,,,,,,,,,,0,0,0,1,1,main_trial_block2.xlsx,,,,,,,,,,,,,,,,,
,,,,,,,,,,elc149,03-10-2023_08h53.59.096,spanish_exp2,2022.1.4,Win32,61.06870229,,,space,4.2632,0,0,0,1,1,target,ultimate,"""Con la lluvia el viento es muy fuerte"" —determinó complacida.",determinar,1,,,,,,,,,,,,,,,,,,,,,,,
,,,,,,,,,,elc149,03-10-2023_08h53.59.096,spanish_exp2,2022.1.4,Win32,61.06870229,,,space,4.4641,0,1,1,6,1,target,penultimate,"""Confirma la cita para mañana"" —le encamino con ilusión. ",encaminar,1,,,,,,,,,,,,,,,,,,,,,,,
,,,,,,,,,,elc149,03-10-2023_08h53.59.096,spanish_exp2,2022.1.4,Win32,61.06870229,,,space,3.7726,0,2,2,8,1,target,penultimate,"""Este tiene menos azúcar"" —discrimino tímida.",discriminar,1,,,,,,,,,,,,,,,,,,,,,,,
,,,,,,,,,,elc149,03-10-2023_08h53.59.096,spanish_exp2,2022.1.4,Win32,61.06870229,,,space,3.928,0,3,3,13,1,target,ultimate,"""Retrato de un hombre triste"" —lo denominó complacido. ",denominar,1,,,,,,,,,,,,,,,,,,,,,,,
,,,,,,,,,,elc149,03-10-2023_08h53.59.096,spanish_exp2,2022.1.4,Win32,61.06870229,,,space,3.5122,0,4,4,7,1,target,ultimate,"""Me robaron"" —les recriminó con intensidad.",recriminar,1,,,,,,,,,,,,,,,,,,,,,,,
,,,,,,,,,,elc149,03-10-2023_08h53.59.096,spanish_exp2,2022.1.4,Win32,61.06870229,,,space,4.4693,0,5,5,0,1,target,penultimate,"""No me gusta el té de manzanilla"" —abomino con certeza.",abominar,1,,,,,,,,,,,,,,,,,,,,,,,
,,,,,,,,,,elc149,03-10-2023_08h53.59.096,spanish_exp2,2022.1.4,Win32,61.06870229,,,space,4.9663,0,6,6,2,1,target,penultimate,"""Este no es mi número de teléfono"" —la descamino complacido.",descaminar,1,,,,,,,,,,,,,,,,,,,,,,,
,,,,,,,,,,elc149,03-10-2023_08h53.59.096,spanish_exp2,2022.1.4,Win32,61.06870229,,,space,4.5813,0,7,7,11,1,target,ultimate,"""Entraron sin pedir permiso"" —les incriminó seguro.",incriminar,1,,,,,,,,,,,,,,,,,,,,,,,
,,,,,,,,,,elc149,03-10-2023_08h53.59.096,spanish_exp2,2022.1.4,Win32,61.06870229,,,space,3.7505,0,8,8,5,1,target,ultimate,"""Compré esta lámpara ayer"" —iluminó contenta.",iluminar,1,,,,,,,,,,,,,,,,,,,,,,,
,,,,,,,,,,elc149,03-10-2023_08h53.59.096,spanish_exp2,2022.1.4,Win32,61.06870229,,,space,4.2829,0,9,9,10,1,target,penultimate,"""No son necesarios"" —los elimino segura.",eliminar,1,,,,,,,,,,,,,,,,,,,,,,,
,,,,,,,,,,elc149,03-10-2023_08h53.59.096,spanish_exp2,2022.1.4,Win32,61.06870229,,,space,4.6643,0,10,10,9,1,target,ultimate,"""No puedo cocinar sin quemar la comida"" —me desanimó compungida.",desanimar,1,,,,,,,,,,,,,,,,,,,,,,,
,,,,,,,,,,elc149,03-10-2023_08h53.59.096,spanish_exp2,2022.1.4,Win32,61.06870229,,,space,4.1726,0,11,11,4,1,target,penultimate,"""Escriban la respuesta"" —los examino seriamente.",examinar,1,,,,,,,,,,,,,,,,,,,,,,,
,,,,,,,,,,elc149,03-10-2023_08h53.59.096,spanish_exp2,2022.1.4,Win32,61.06870229,,,space,4.6708,0,12,12,3,1,target,ultimate,"""El presidente del estado se encuentra enfermo"" —diseminó compungido.",diseminar,1,,,,,,,,,,,,,,,,,,,,,,,
,,,,,,,,,,elc149,03-10-2023_08h53.59.096,spanish_exp2,2022.1.4,Win32,61.06870229,,,space,3.9602,0,13,13,12,1,target,penultimate,"""No habrá más cucarachas"" —extermino complacida.",exterminar,1,,,,,,,,,,,,,,,,,,,,,,,
,,,,,,,,,,elc149,03-10-2023_08h53.59.096,spanish_exp2,2022.1.4,Win32,61.06870229,,,,,,,,,,,,,,,0,1,1,0,1,main_trial_block1.xlsx,,,,,,,,,,,,,,,,,
,,,,,,,,,,elc149,03-10-2023_08h53.59.096,spanish_exp2,2022.1.4,Win32,61.06870229,,,,,,,,,,,,,,,,,,,,,space,11.4866,0,0,0,0,1,,,,,,,,,,
,,,,,,,,,,elc149,03-10-2023_08h53.59.096,spanish_exp2,2022.1.4,Win32,61.06870229,,,space,4.3398,0,0,0,2,1,target,penultimate,"""Este no es mi número de teléfono"" —la descamino complacido.",descaminar,1,,,,,,,,,,,,,,,,,,,,,,,
,,,,,,,,,,elc149,03-10-2023_08h53.59.096,spanish_exp2,2022.1.4,Win32,61.06870229,,,space,3.752,0,1,1,4,1,target,penultimate,"""Escriban la respuesta"" —los examino seriamente.",examinar,1,,,,,,,,,,,,,,,,,,,,,,,
,,,,,,,,,,elc149,03-10-2023_08h53.59.096,spanish_exp2,2022.1.4,Win32,61.06870229,,,space,3.7216,0,2,2,12,1,target,penultimate,"""No habrá más cucarachas"" —extermino complacida.",exterminar,1,,,,,,,,,,,,,,,,,,,,,,,
,,,,,,,,,,elc149,03-10-2023_08h53.59.096,spanish_exp2,2022.1.4,Win32,61.06870229,,,space,3.9559,0,3,3,6,1,target,penultimate,"""Confirma la cita para mañana"" —le encamino con ilusión. ",encaminar,1,,,,,,,,,,,,,,,,,,,,,,,
,,,,,,,,,,elc149,03-10-2023_08h53.59.096,spanish_exp2,2022.1.4,Win32,61.06870229,,,space,4.0746,0,4,4,1,1,target,ultimate,"""Con la lluvia el viento es muy fuerte"" —determinó complacida.",determinar,1,,,,,,,,,,,,,,,,,,,,,,,
,,,,,,,,,,elc149,03-10-2023_08h53.59.096,spanish_exp2,2022.1.4,Win32,61.06870229,,,space,3.9964,0,5,5,0,1,target,penultimate,"""No me gusta el té de manzanilla"" —abomino con certeza.",abominar,1,,,,,,,,,,,,,,,,,,,,,,,
,,,,,,,,,,elc149,03-10-2023_08h53.59.096,spanish_exp2,2022.1.4,Win32,61.06870229,,,space,3.5245,0,6,6,5,1,target,ultimate,"""Compré esta lámpara ayer"" —iluminó contenta.",iluminar,1,,,,,,,,,,,,,,,,,,,,,,,
,,,,,,,,,,elc149,03-10-2023_08h53.59.096,spanish_exp2,2022.1.4,Win32,61.06870229,,,space,3.574,0,7,7,10,1,target,penultimate,"""No son necesarios"" —los elimino segura.",eliminar,1,,,,,,,,,,,,,,,,,,,,,,,
,,,,,,,,,,elc149,03-10-2023_08h53.59.096,spanish_exp2,2022.1.4,Win32,61.06870229,,,space,4.8466,0,8,8,3,1,target,ultimate,"""El presidente del estado se encuentra enfermo"" —diseminó compungido.",diseminar,1,,,,,,,,,,,,,,,,,,,,,,,
,,,,,,,,,,elc149,03-10-2023_08h53.59.096,spanish_exp2,2022.1.4,Win32,61.06870229,,,space,4.1288,0,9,9,13,1,target,ultimate,"""Retrato de un hombre triste"" —lo denominó complacido. ",denominar,1,,,,,,,,,,,,,,,,,,,,,,,
,,,,,,,,,,elc149,03-10-2023_08h53.59.096,spanish_exp2,2022.1.4,Win32,61.06870229,,,space,3.9639,0,10,10,8,1,target,penultimate,"""Este tiene menos azúcar"" —discrimino tímida.",discriminar,1,,,,,,,,,,,,,,,,,,,,,,,
,,,,,,,,,,elc149,03-10-2023_08h53.59.096,spanish_exp2,2022.1.4,Win32,61.06870229,,,space,4.0372,0,11,11,11,1,target,ultimate,"""Entraron sin pedir permiso"" —les incriminó seguro.",incriminar,1,,,,,,,,,,,,,,,,,,,,,,,
,,,,,,,,,,elc149,03-10-2023_08h53.59.096,spanish_exp2,2022.1.4,Win32,61.06870229,,,space,3.3865,0,12,12,7,1,target,ultimate,"""Me robaron"" —les recriminó con intensidad.",recriminar,1,,,,,,,,,,,,,,,,,,,,,,,
,,,,,,,,,,elc149,03-10-2023_08h53.59.096,spanish_exp2,2022.1.4,Win32,61.06870229,,,space,4.6586,0,13,13,9,1,target,ultimate,"""No puedo cocinar sin quemar la comida"" —me desanimó compungida.",desanimar,1,,,,,,,,,,,,,,,,,,,,,,,
,,,,,,,,,,elc149,03-10-2023_08h53.59.096,spanish_exp2,2022.1.4,Win32,61.06870229,,,,,,,,,,,,,,,0,0,0,0,1,main_trial_block1.xlsx,,,,,,,,,,,,,,,,,
,,,,,,,,,,elc149,03-10-2023_08h53.59.096,spanish_exp2,2022.1.4,Win32,61.06870229,,,space,4.0396,0,0,0,7,1,target,penultimate,"""No me gusta su conducta"" —les recrimino con intensidad.",recriminar,2,,,,,,,,,,,,,,,,,,,,,,,
,,,,,,,,,,elc149,03-10-2023_08h53.59.096,spanish_exp2,2022.1.4,Win32,61.06870229,,,space,3.6338,0,1,1,8,1,target,ultimate,"""Este es más fuerte"" —discriminó tímida.",discriminar,2,,,,,,,,,,,,,,,,,,,,,,,
,,,,,,,,,,elc149,03-10-2023_08h53.59.096,spanish_exp2,2022.1.4,Win32,61.06870229,,,space,4.0469,0,2,2,6,1,target,ultimate,"""Lee estos artículos"" —le encaminó con ilusión.",encaminar,2,,,,,,,,,,,,,,,,,,,,,,,
,,,,,,,,,,elc149,03-10-2023_08h53.59.096,spanish_exp2,2022.1.4,Win32,61.06870229,,,space,3.9792,0,3,3,4,1,target,ultimate,"""Desarrollen esta ecuación"" —los examinó seriamente.",examinar,2,,,,,,,,,,,,,,,,,,,,,,,
,,,,,,,,,,elc149,03-10-2023_08h53.59.096,spanish_exp2,2022.1.4,Win32,61.06870229,,,space,3.7284,0,4,4,0,1,target,ultimate,"""No me gustan las corridas"" —abominó con certeza.",abominar,2,,,,,,,,,,,,,,,,,,,,,,,
,,,,,,,,,,elc149,03-10-2023_08h53.59.096,spanish_exp2,2022.1.4,Win32,61.06870229,,,space,4.158,0,5,5,12,1,target,ultimate,"""Este insecticida es muy eficaz"" —exterminó complacida.",exterminar,2,,,,,,,,,,,,,,,,,,,,,,,
,,,,,,,,,,elc149,03-10-2023_08h53.59.096,spanish_exp2,2022.1.4,Win32,61.06870229,,,space,4.1477,0,6,6,9,1,target,penultimate,"""No puedo estudiar matemáticas"" —me desanimo compungida.",desanimar,2,,,,,,,,,,,,,,,,,,,,,,,
,,,,,,,,,,elc149,03-10-2023_08h53.59.096,spanish_exp2,2022.1.4,Win32,61.06870229,,,space,4.1218,0,7,7,2,1,target,ultimate,"""Este es el camino más corto"" —la descaminó complacido.",descaminar,2,,,,,,,,,,,,,,,,,,,,,,,
,,,,,,,,,,elc149,03-10-2023_08h53.59.096,spanish_exp2,2022.1.4,Win32,61.06870229,,,space,4.2222,0,8,8,3,1,target,penultimate,"""La directora Pérez renuncia a su cargo"" —disemino compungido.",diseminar,2,,,,,,,,,,,,,,,,,,,,,,,
,,,,,,,,,,elc149,03-10-2023_08h53.59.096,spanish_exp2,2022.1.4,Win32,61.06870229,,,space,4.4259,0,9,9,1,1,target,penultimate,"""La masa del átomo es medible"" —determino complacida.",determinar,2,,,,,,,,,,,,,,,,,,,,,,,
,,,,,,,,,,elc149,03-10-2023_08h53.59.096,spanish_exp2,2022.1.4,Win32,61.06870229,,,space,4.0354,0,10,10,5,1,target,penultimate,"""Estas son las luces nuevas"" —ilumino contenta.",iluminar,2,,,,,,,,,,,,,,,,,,,,,,,
,,,,,,,,,,elc149,03-10-2023_08h53.59.096,spanish_exp2,2022.1.4,Win32,61.06870229,,,space,3.8496,0,11,11,11,1,target,penultimate,"""Los Osvald, culpables"" —les incrimino seguro.",incriminar,2,,,,,,,,,,,,,,,,,,,,,,,
,,,,,,,,,,elc149,03-10-2023_08h53.59.096,spanish_exp2,2022.1.4,Win32,61.06870229,,,space,3.5,0,12,12,13,1,target,penultimate,"""Se llamará beta"" —lo denomino complacido.",denominar,2,,,,,,,,,,,,,,,,,,,,,,,
,,,,,,,,,,elc149,03-10-2023_08h53.59.096,spanish_exp2,2022.1.4,Win32,61.06870229,,,space,3.4468,0,13,13,10,1,target,ultimate,"""Tarjeta roja"" —los eliminó segura.",eliminar,2,,,,,,,,,,,,,,,,,,,,,,,
,,,,,,,,,,elc149,03-10-2023_08h53.59.096,spanish_exp2,2022.1.4,Win32,61.06870229,,,,,,,,,,,,,,,0,1,1,1,1,main_trial_block2.xlsx,,,,,,,,,,,,,,,,,
,,,,,,,,,,elc149,03-10-2023_08h53.59.096,spanish_exp2,2022.1.4,Win32,61.06870229,,,,,,,,,,,,,,,,,,,,,space,9.8253,1,0,1,0,1,,,,,,,,,,
,,,,,,,,,,elc149,03-10-2023_08h53.59.096,spanish_exp2,2022.1.4,Win32,61.06870229,,,space,3.8757,,,,,,target,ultimate,"""Desarrollen esta ecuación"" —los examinó seriamente.",examinar,2,,,,,,,,,,,,,,0,0,0,4,1,,,,,
,,,,,,,,,,elc149,03-10-2023_08h53.59.096,spanish_exp2,2022.1.4,Win32,61.06870229,,,space,3.7001,,,,,,target,ultimate,"""Lee estos artículos"" —le encaminó con ilusión.",encaminar,2,,,,,,,,,,,,,,0,1,1,6,1,,,,,
,,,,,,,,,,elc149,03-10-2023_08h53.59.096,spanish_exp2,2022.1.4,Win32,61.06870229,,,space,3.4651,,,,,,target,penultimate,"""Se llamará beta"" —lo denomino complacido.",denominar,2,,,,,,,,,,,,,,0,2,2,13,1,,,,,
,,,,,,,,,,elc149,03-10-2023_08h53.59.096,spanish_exp2,2022.1.4,Win32,61.06870229,,,space,3.3406,,,,,,target,ultimate,"""Tarjeta roja"" —los eliminó segura.",eliminar,2,,,,,,,,,,,,,,0,3,3,10,1,,,,,
,,,,,,,,,,elc149,03-10-2023_08h53.59.096,spanish_exp2,2022.1.4,Win32,61.06870229,,,space,3.6449,,,,,,target,ultimate,"""Este es más fuerte"" —discriminó tímida.",discriminar,2,,,,,,,,,,,,,,0,4,4,8,1,,,,,
,,,,,,,,,,elc149,03-10-2023_08h53.59.096,spanish_exp2,2022.1.4,Win32,61.06870229,,,space,3.3935,,,,,,target,ultimate,"""No me gustan las corridas"" —abominó con certeza.",abominar,2,,,,,,,,,,,,,,0,5,5,0,1,,,,,
,,,,,,,,,,elc149,03-10-2023_08h53.59.096,spanish_exp2,2022.1.4,Win32,61.06870229,,,space,3.9997,,,,,,target,penultimate,"""La masa del átomo es medible"" —determino complacida.",determinar,2,,,,,,,,,,,,,,0,6,6,1,1,,,,,
,,,,,,,,,,elc149,03-10-2023_08h53.59.096,spanish_exp2,2022.1.4,Win32,61.06870229,,,space,4.0628,,,,,,target,penultimate,"""No puedo estudiar matemáticas"" —me desanimo compungida.",desanimar,2,,,,,,,,,,,,,,0,7,7,9,1,,,,,
,,,,,,,,,,elc149,03-10-2023_08h53.59.096,spanish_exp2,2022.1.4,Win32,61.06870229,,,space,4.0873,,,,,,target,penultimate,"""No me gusta su conducta"" —les recrimino con intensidad.",recriminar,2,,,,,,,,,,,,,,0,8,8,7,1,,,,,
,,,,,,,,,,elc149,03-10-2023_08h53.59.096,spanish_exp2,2022.1.4,Win32,61.06870229,,,space,3.8522,,,,,,target,ultimate,"""Este insecticida es muy eficaz"" —exterminó complacida.",exterminar,2,,,,,,,,,,,,,,0,9,9,12,1,,,,,
,,,,,,,,,,elc149,03-10-2023_08h53.59.096,spanish_exp2,2022.1.4,Win32,61.06870229,,,space,3.7265,,,,,,target,penultimate,"""Los Osvald, culpables"" —les incrimino seguro.",incriminar,2,,,,,,,,,,,,,,0,10,10,11,1,,,,,
,,,,,,,,,,elc149,03-10-2023_08h53.59.096,spanish_exp2,2022.1.4,Win32,61.06870229,,,space,4.2267,,,,,,target,penultimate,"""La directora Pérez renuncia a su cargo"" —disemino compungido.",diseminar,2,,,,,,,,,,,,,,0,11,11,3,1,,,,,
,,,,,,,,,,elc149,03-10-2023_08h53.59.096,spanish_exp2,2022.1.4,Win32,61.06870229,,,space,4.0117,,,,,,target,ultimate,"""Este es el camino más corto"" —la descaminó complacido.",descaminar,2,,,,,,,,,,,,,,0,12,12,2,1,,,,,
,,,,,,,,,,elc149,03-10-2023_08h53.59.096,spanish_exp2,2022.1.4,Win32,61.06870229,,,space,3.8157,,,,,,target,penultimate,"""Estas son las luces nuevas"" —ilumino contenta.",iluminar,2,,,,,,,,,,,,,,0,13,13,5,1,,,,,
,,,,,,,,,,elc149,03-10-2023_08h53.59.096,spanish_exp2,2022.1.4,Win32,61.06870229,,,,,,,,,,,,,,,,,,,,main_trial_block2.xlsx,,,,,,,,,,,,,0,0,0,1,1
,,,,,,,,,,elc149,03-10-2023_08h53.59.096,spanish_exp2,2022.1.4,Win32,61.06870229,,,space,4.0233,,,,,,target,ultimate,"""Entraron sin pedir permiso"" —les incriminó seguro.",incriminar,1,,,,,,,,,,,,,,0,0,0,11,1,,,,,
,,,,,,,,,,elc149,03-10-2023_08h53.59.096,spanish_exp2,2022.1.4,Win32,61.06870229,,,space,4.4715,,,,,,target,penultimate,"""Este no es mi número de teléfono"" —la descamino complacido.",descaminar,1,,,,,,,,,,,,,,0,1,1,2,1,,,,,
,,,,,,,,,,elc149,03-10-2023_08h53.59.096,spanish_exp2,2022.1.4,Win32,61.06870229,,,space,3.7608,,,,,,target,penultimate,"""No habrá más cucarachas"" —extermino complacida.",exterminar,1,,,,,,,,,,,,,,0,2,2,12,1,,,,,
,,,,,,,,,,elc149,03-10-2023_08h53.59.096,spanish_exp2,2022.1.4,Win32,61.06870229,,,space,3.8737,,,,,,target,ultimate,"""Retrato de un hombre triste"" —lo denominó complacido. ",denominar,1,,,,,,,,,,,,,,0,3,3,13,1,,,,,
,,,,,,,,,,elc149,03-10-2023_08h53.59.096,spanish_exp2,2022.1.4,Win32,61.06870229,,,space,4.0091,,,,,,target,ultimate,"""Con la lluvia el viento es muy fuerte"" —determinó complacida.",determinar,1,,,,,,,,,,,,,,0,4,4,1,1,,,,,
,,,,,,,,,,elc149,03-10-2023_08h53.59.096,spanish_exp2,2022.1.4,Win32,61.06870229,,,space,4.5176,,,,,,target,ultimate,"""El presidente del estado se encuentra enfermo"" —diseminó compungido.",diseminar,1,,,,,,,,,,,,,,0,5,5,3,1,,,,,
,,,,,,,,,,elc149,03-10-2023_08h53.59.096,spanish_exp2,2022.1.4,Win32,61.06870229,,,space,3.7362,,,,,,target,penultimate,"""Escriban la respuesta"" —los examino seriamente.",examinar,1,,,,,,,,,,,,,,0,6,6,4,1,,,,,
,,,,,,,,,,elc149,03-10-2023_08h53.59.096,spanish_exp2,2022.1.4,Win32,61.06870229,,,space,3.677,,,,,,target,penultimate,"""No me gusta el té de manzanilla"" —abomino con certeza.",abominar,1,,,,,,,,,,,,,,0,7,7,0,1,,,,,
,,,,,,,,,,elc149,03-10-2023_08h53.59.096,spanish_exp2,2022.1.4,Win32,61.06870229,,,space,4.2218,,,,,,target,penultimate,"""Confirma la cita para mañana"" —le encamino con ilusión. ",encaminar,1,,,,,,,,,,,,,,0,8,8,6,1,,,,,
,,,,,,,,,,elc149,03-10-2023_08h53.59.096,spanish_exp2,2022.1.4,Win32,61.06870229,,,space,3.5629,,,,,,target,penultimate,"""No son necesarios"" —los elimino segura.",eliminar,1,,,,,,,,,,,,,,0,9,9,10,1,,,,,
,,,,,,,,,,elc149,03-10-2023_08h53.59.096,spanish_exp2,2022.1.4,Win32,61.06870229,,,space,4.693,,,,,,target,ultimate,"""No puedo cocinar sin quemar la comida"" —me desanimó compungida.",desanimar,1,,,,,,,,,,,,,,0,10,10,9,1,,,,,
,,,,,,,,,,elc149,03-10-2023_08h53.59.096,spanish_exp2,2022.1.4,Win32,61.06870229,,,space,4.3784,,,,,,target,penultimate,"""Este tiene menos azúcar"" —discrimino tímida.",discriminar,1,,,,,,,,,,,,,,0,11,11,8,1,,,,,
,,,,,,,,,,elc149,03-10-2023_08h53.59.096,spanish_exp2,2022.1.4,Win32,61.06870229,,,space,3.9945,,,,,,target,ultimate,"""Me robaron"" —les recriminó con intensidad.",recriminar,1,,,,,,,,,,,,,,0,12,12,7,1,,,,,
,,,,,,,,,,elc149,03-10-2023_08h53.59.096,spanish_exp2,2022.1.4,Win32,61.06870229,,,space,3.8101,,,,,,target,ultimate,"""Compré esta lámpara ayer"" —iluminó contenta.",iluminar,1,,,,,,,,,,,,,,0,13,13,5,1,,,,,
,,,,,,,,,,elc149,03-10-2023_08h53.59.096,spanish_exp2,2022.1.4,Win32,61.06870229,,,,,,,,,,,,,,,,,,,,main_trial_block1.xlsx,,,,,,,,,,,,,0,1,1,0,1
