key_resp.keys,key_resp.rt,key_resp_2.keys,key_resp_2.rt,trials_2.thisRepN,trials_2.thisTrialN,trials_2.thisN,trials_2.thisIndex,trials_2.ran,trialcatalan,participant ID,date,expName,psychopyVersion,OS,frameRate,key_resp_3.keys,key_resp_3.rt,key_resp_4.keys,key_resp_4.rt,trial_randomizer.thisRepN,trial_randomizer.thisTrialN,trial_randomizer.thisN,trial_randomizer.thisIndex,trial_randomizer.ran,fillertarget,stress,wordcatalan,verbcatalan,rand_12,block_randomizer.thisRepN,block_randomizer.thisTrialN,block_randomizer.thisN,block_randomizer.thisIndex,block_randomizer.ran,condsFile,key_resp_5.keys,key_resp_5.rt,mainTrialRep.thisRepN,mainTrialRep.thisTrialN,mainTrialRep.thisN,mainTrialRep.thisIndex,mainTrialRep.ran,trial_randomizer2.thisRepN,trial_randomizer2.thisTrialN,trial_randomizer2.thisN,trial_randomizer2.thisIndex,trial_randomizer2.ran,block_randomizer2.thisRepN,block_randomizer2.thisTrialN,block_randomizer2.thisN,block_randomizer2.thisIndex,block_randomizer2.ran
space,32.047,space,5.6804,0,0,0,0,1,"""Ha regalat un pastís al seu nebot"" —va pensar confiat.",,03-11-2023_14h50.25.474,catalan_exp2,2022.1.4,Win32,60.98304671,,,,,,,,,,,,,,,,,,,,,,,,,,,,,,,,,,,,,
,,space,4.1818,0,1,1,1,1,"""Depèn de la temporada"" —explica seriòs.",,03-11-2023_14h50.25.474,catalan_exp2,2022.1.4,Win32,60.98304671,,,,,,,,,,,,,,,,,,,,,,,,,,,,,,,,,,,,,
,,space,4.3696,0,2,2,2,1,"""Voldria una mica de cafè"" —pensa complaguda.",,03-11-2023_14h50.25.474,catalan_exp2,2022.1.4,Win32,60.98304671,,,,,,,,,,,,,,,,,,,,,,,,,,,,,,,,,,,,,
,,space,3.6767,0,3,3,3,1,"""T'estimo molt"" —va sospirar content.",,03-11-2023_14h50.25.474,catalan_exp2,2022.1.4,Win32,60.98304671,,,,,,,,,,,,,,,,,,,,,,,,,,,,,,,,,,,,,
,,,,,,,,,,,03-11-2023_14h50.25.474,catalan_exp2,2022.1.4,Win32,60.98304671,space,5.5277,space,4.5906,0,0,0,11,1,target,penultimate,"""Vostès són les culpables"" —les incrimina confiat.",incriminar,2,,,,,,,,,,,,,,,,,,,,,,,
,,,,,,,,,,,03-11-2023_14h50.25.474,catalan_exp2,2022.1.4,Win32,60.98304671,,,space,5.9491,0,1,1,3,1,target,penultimate,"""La senyora Martí renuncia al seu càrrec"" —dissemina prematura.",disseminar,2,,,,,,,,,,,,,,,,,,,,,,,
,,,,,,,,,,,03-11-2023_14h50.25.474,catalan_exp2,2022.1.4,Win32,60.98304671,,,space,3.8182,0,2,2,5,1,target,penultimate,"""Bon Nadal a tots"" —il·lumina content.",illuminar,2,,,,,,,,,,,,,,,,,,,,,,,
,,,,,,,,,,,03-11-2023_14h50.25.474,catalan_exp2,2022.1.4,Win32,60.98304671,,,space,4.685,0,3,3,6,1,target,ultimate,"""Llegiu aquests articles"" —les va encaminar tímida.",encaminar,2,,,,,,,,,,,,,,,,,,,,,,,
,,,,,,,,,,,03-11-2023_14h50.25.474,catalan_exp2,2022.1.4,Win32,60.98304671,,,space,6.0437,0,4,4,7,1,target,penultimate,"""No m'agrada que em truquis"" —li recrimina seriosa.",recriminar,2,,,,,,,,,,,,,,,,,,,,,,,
,,,,,,,,,,,03-11-2023_14h50.25.474,catalan_exp2,2022.1.4,Win32,60.98304671,,,space,4.8167,0,5,5,13,1,target,penultimate,"""Aquest gen es diu beta"" —denomina concret.",denominar,2,,,,,,,,,,,,,,,,,,,,,,,
,,,,,,,,,,,03-11-2023_14h50.25.474,catalan_exp2,2022.1.4,Win32,60.98304671,,,space,6.0155,0,6,6,2,1,target,ultimate,"""Aquest és el camí més curt"" —la va descaminar complagut.",descaminar,2,,,,,,,,,,,,,,,,,,,,,,,
,,,,,,,,,,,03-11-2023_14h50.25.474,catalan_exp2,2022.1.4,Win32,60.98304671,,,space,4.9064,0,7,7,1,1,target,penultimate,"""La massa de l'àtom és mesurable"" —determina complaguda.",determinar,2,,,,,,,,,,,,,,,,,,,,,,,
,,,,,,,,,,,03-11-2023_14h50.25.474,catalan_exp2,2022.1.4,Win32,60.98304671,,,space,9.3928,0,8,8,8,1,target,ultimate,"""Aquest és més fort"" —va discriminar tímid.",discriminar,2,,,,,,,,,,,,,,,,,,,,,,,
,,,,,,,,,,,03-11-2023_14h50.25.474,catalan_exp2,2022.1.4,Win32,60.98304671,,,space,5.1604,0,9,9,12,1,target,ultimate,"""Aquest verí va molt bé"" —va exterminar complaguda.",exterminar,2,,,,,,,,,,,,,,,,,,,,,,,
,,,,,,,,,,,03-11-2023_14h50.25.474,catalan_exp2,2022.1.4,Win32,60.98304671,,,space,4.8827,0,10,10,4,1,target,ultimate,"""Facin aquesta equació"" —els va examinar clarament.",examinar,2,,,,,,,,,,,,,,,,,,,,,,,
,,,,,,,,,,,03-11-2023_14h50.25.474,catalan_exp2,2022.1.4,Win32,60.98304671,,,space,5.3097,0,11,11,0,1,target,ultimate,"""No m'agraden gens les curses de braus"" —va abominar plena.",abominar,2,,,,,,,,,,,,,,,,,,,,,,,
,,,,,,,,,,,03-11-2023_14h50.25.474,catalan_exp2,2022.1.4,Win32,60.98304671,,,space,4.7896,0,12,12,10,1,target,ultimate,"""Érem a casa a l'hora del crim"" —va eliminar segura.",eliminar,2,,,,,,,,,,,,,,,,,,,,,,,
,,,,,,,,,,,03-11-2023_14h50.25.474,catalan_exp2,2022.1.4,Win32,60.98304671,,,space,5.0789,0,13,13,9,1,target,penultimate,"""No passaré mai l'examen"" —es desanima seriós.",desanimar,2,,,,,,,,,,,,,,,,,,,,,,,
,,,,,,,,,,,03-11-2023_14h50.25.474,catalan_exp2,2022.1.4,Win32,60.98304671,,,,,,,,,,,,,,,0,0,0,1,1,main_trial_block2.xlsx,,,,,,,,,,,,,,,,,
,,,,,,,,,,,03-11-2023_14h50.25.474,catalan_exp2,2022.1.4,Win32,60.98304671,,,space,5.0553,0,0,0,6,1,target,penultimate,"""Confirmin la cita per demà"" —les encamina tímida.",encaminar,1,,,,,,,,,,,,,,,,,,,,,,,
,,,,,,,,,,,03-11-2023_14h50.25.474,catalan_exp2,2022.1.4,Win32,60.98304671,,,space,4.1172,0,1,1,10,1,target,penultimate,"""No són necessaris"" —elimina segura.",eliminar,1,,,,,,,,,,,,,,,,,,,,,,,
,,,,,,,,,,,03-11-2023_14h50.25.474,catalan_exp2,2022.1.4,Win32,60.98304671,,,space,5.5693,0,2,2,1,1,target,ultimate,"""Amb la pluja el vent és molt fort"" —va determinar complaguda.",determinar,1,,,,,,,,,,,,,,,,,,,,,,,
,,,,,,,,,,,03-11-2023_14h50.25.474,catalan_exp2,2022.1.4,Win32,60.98304671,,,space,4.4064,0,3,3,8,1,target,penultimate,"""Aquest té menys sucre"" —discrimina tímid.",discriminar,1,,,,,,,,,,,,,,,,,,,,,,,
,,,,,,,,,,,03-11-2023_14h50.25.474,catalan_exp2,2022.1.4,Win32,60.98304671,,,space,5.4811,0,4,4,11,1,target,ultimate,"""Van entrar sense demanar permís"" —les va incriminar confiat.",incriminar,1,,,,,,,,,,,,,,,,,,,,,,,
,,,,,,,,,,,03-11-2023_14h50.25.474,catalan_exp2,2022.1.4,Win32,60.98304671,,,space,6.1964,0,5,5,9,1,target,ultimate,"""No puc cuinar sense cremar el menjar"" —es va desanimar seriós.",desanimar,1,,,,,,,,,,,,,,,,,,,,,,,
,,,,,,,,,,,03-11-2023_14h50.25.474,catalan_exp2,2022.1.4,Win32,60.98304671,,,space,5.0659,0,6,6,4,1,target,penultimate,"""Escriguin la resposta"" —els examina clarament.",examinar,1,,,,,,,,,,,,,,,,,,,,,,,
,,,,,,,,,,,03-11-2023_14h50.25.474,catalan_exp2,2022.1.4,Win32,60.98304671,,,space,4.5767,0,7,7,7,1,target,ultimate,"""És culpa teva"" —li va recriminar seriosa.",recriminar,1,,,,,,,,,,,,,,,,,,,,,,,
,,,,,,,,,,,03-11-2023_14h50.25.474,catalan_exp2,2022.1.4,Win32,60.98304671,,,space,4.5444,0,8,8,0,1,target,penultimate,"""No m'agrada el te de camamilla"" —abomina plena.",abominar,1,,,,,,,,,,,,,,,,,,,,,,,
,,,,,,,,,,,03-11-2023_14h50.25.474,catalan_exp2,2022.1.4,Win32,60.98304671,,,space,5.7963,0,9,9,3,1,target,ultimate,"""El president de l'estat està malalt"" —va disseminar prematura.",disseminar,1,,,,,,,,,,,,,,,,,,,,,,,
,,,,,,,,,,,03-11-2023_14h50.25.474,catalan_exp2,2022.1.4,Win32,60.98304671,,,space,4.937,0,10,10,13,1,target,ultimate,"""Retrat d'un home trist"" —va denominar concret.",denominar,1,,,,,,,,,,,,,,,,,,,,,,,
,,,,,,,,,,,03-11-2023_14h50.25.474,catalan_exp2,2022.1.4,Win32,60.98304671,,,space,5.0786,0,11,11,12,1,target,penultimate,"""No hi haurà més bestioles"" —extermina complaguda.",exterminar,1,,,,,,,,,,,,,,,,,,,,,,,
,,,,,,,,,,,03-11-2023_14h50.25.474,catalan_exp2,2022.1.4,Win32,60.98304671,,,space,5.582,0,12,12,5,1,target,ultimate,"""Acabo de comprar aquest llum"" —va il·luminar content.",illuminar,1,,,,,,,,,,,,,,,,,,,,,,,
,,,,,,,,,,,03-11-2023_14h50.25.474,catalan_exp2,2022.1.4,Win32,60.98304671,,,space,5.725,0,13,13,2,1,target,penultimate,"""Aquest no és el meu número de telèfon"" —la descamina complagut.",descaminar,1,,,,,,,,,,,,,,,,,,,,,,,
,,,,,,,,,,,03-11-2023_14h50.25.474,catalan_exp2,2022.1.4,Win32,60.98304671,,,,,,,,,,,,,,,0,1,1,0,1,main_trial_block1.xlsx,,,,,,,,,,,,,,,,,
,,,,,,,,,,,03-11-2023_14h50.25.474,catalan_exp2,2022.1.4,Win32,60.98304671,,,,,,,,,,,,,,,,,,,,,space,10.6877,0,0,0,0,1,,,,,,,,,,
,,,,,,,,,,,03-11-2023_14h50.25.474,catalan_exp2,2022.1.4,Win32,60.98304671,,,space,4.888,0,0,0,7,1,target,ultimate,"""És culpa teva"" —li va recriminar seriosa.",recriminar,1,,,,,,,,,,,,,,,,,,,,,,,
,,,,,,,,,,,03-11-2023_14h50.25.474,catalan_exp2,2022.1.4,Win32,60.98304671,,,space,5.1472,0,1,1,11,1,target,ultimate,"""Van entrar sense demanar permís"" —les va incriminar confiat.",incriminar,1,,,,,,,,,,,,,,,,,,,,,,,
,,,,,,,,,,,03-11-2023_14h50.25.474,catalan_exp2,2022.1.4,Win32,60.98304671,,,space,4.2735,0,2,2,0,1,target,penultimate,"""No m'agrada el te de camamilla"" —abomina plena.",abominar,1,,,,,,,,,,,,,,,,,,,,,,,
,,,,,,,,,,,03-11-2023_14h50.25.474,catalan_exp2,2022.1.4,Win32,60.98304671,,,space,5.1477,0,3,3,1,1,target,ultimate,"""Amb la pluja el vent és molt fort"" —va determinar complaguda.",determinar,1,,,,,,,,,,,,,,,,,,,,,,,
,,,,,,,,,,,03-11-2023_14h50.25.474,catalan_exp2,2022.1.4,Win32,60.98304671,,,space,11.4693,0,4,4,9,1,target,ultimate,"""No puc cuinar sense cremar el menjar"" —es va desanimar seriós.",desanimar,1,,,,,,,,,,,,,,,,,,,,,,,
,,,,,,,,,,,03-11-2023_14h50.25.474,catalan_exp2,2022.1.4,Win32,60.98304671,,,space,6.4394,0,5,5,4,1,target,penultimate,"""Escriguin la resposta"" —els examina clarament.",examinar,1,,,,,,,,,,,,,,,,,,,,,,,
,,,,,,,,,,,03-11-2023_14h50.25.474,catalan_exp2,2022.1.4,Win32,60.98304671,,,space,5.3924,0,6,6,2,1,target,penultimate,"""Aquest no és el meu número de telèfon"" —la descamina complagut.",descaminar,1,,,,,,,,,,,,,,,,,,,,,,,
,,,,,,,,,,,03-11-2023_14h50.25.474,catalan_exp2,2022.1.4,Win32,60.98304671,,,space,4.8313,0,7,7,6,1,target,penultimate,"""Confirmin la cita per demà"" —les encamina tímida.",encaminar,1,,,,,,,,,,,,,,,,,,,,,,,
,,,,,,,,,,,03-11-2023_14h50.25.474,catalan_exp2,2022.1.4,Win32,60.98304671,,,space,5.8286,0,8,8,3,1,target,ultimate,"""El president de l'estat està malalt"" —va disseminar prematura.",disseminar,1,,,,,,,,,,,,,,,,,,,,,,,
,,,,,,,,,,,03-11-2023_14h50.25.474,catalan_exp2,2022.1.4,Win32,60.98304671,,,space,4.1842,0,9,9,8,1,target,penultimate,"""Aquest té menys sucre"" —discrimina tímid.",discriminar,1,,,,,,,,,,,,,,,,,,,,,,,
,,,,,,,,,,,03-11-2023_14h50.25.474,catalan_exp2,2022.1.4,Win32,60.98304671,,,space,5.1564,0,10,10,12,1,target,penultimate,"""No hi haurà més bestioles"" —extermina complaguda.",exterminar,1,,,,,,,,,,,,,,,,,,,,,,,
,,,,,,,,,,,03-11-2023_14h50.25.474,catalan_exp2,2022.1.4,Win32,60.98304671,,,space,5.0563,0,11,11,5,1,target,ultimate,"""Acabo de comprar aquest llum"" —va il·luminar content.",illuminar,1,,,,,,,,,,,,,,,,,,,,,,,
,,,,,,,,,,,03-11-2023_14h50.25.474,catalan_exp2,2022.1.4,Win32,60.98304671,,,space,4.7159,0,12,12,13,1,target,ultimate,"""Retrat d'un home trist"" —va denominar concret.",denominar,1,,,,,,,,,,,,,,,,,,,,,,,
,,,,,,,,,,,03-11-2023_14h50.25.474,catalan_exp2,2022.1.4,Win32,60.98304671,,,space,4.8432,0,13,13,10,1,target,penultimate,"""No són necessaris"" —elimina segura.",eliminar,1,,,,,,,,,,,,,,,,,,,,,,,
,,,,,,,,,,,03-11-2023_14h50.25.474,catalan_exp2,2022.1.4,Win32,60.98304671,,,,,,,,,,,,,,,0,0,0,0,1,main_trial_block1.xlsx,,,,,,,,,,,,,,,,,
,,,,,,,,,,,03-11-2023_14h50.25.474,catalan_exp2,2022.1.4,Win32,60.98304671,,,space,4.6292,0,0,0,13,1,target,penultimate,"""Aquest gen es diu beta"" —denomina concret.",denominar,2,,,,,,,,,,,,,,,,,,,,,,,
,,,,,,,,,,,03-11-2023_14h50.25.474,catalan_exp2,2022.1.4,Win32,60.98304671,,,space,5.1744,0,1,1,10,1,target,ultimate,"""Érem a casa a l'hora del crim"" —va eliminar segura.",eliminar,2,,,,,,,,,,,,,,,,,,,,,,,
,,,,,,,,,,,03-11-2023_14h50.25.474,catalan_exp2,2022.1.4,Win32,60.98304671,,,space,4.4598,0,2,2,4,1,target,ultimate,"""Facin aquesta equació"" —els va examinar clarament.",examinar,2,,,,,,,,,,,,,,,,,,,,,,,
,,,,,,,,,,,03-11-2023_14h50.25.474,catalan_exp2,2022.1.4,Win32,60.98304671,,,space,4.9787,0,3,3,11,1,target,penultimate,"""Vostès són les culpables"" —les incrimina confiat.",incriminar,2,,,,,,,,,,,,,,,,,,,,,,,
,,,,,,,,,,,03-11-2023_14h50.25.474,catalan_exp2,2022.1.4,Win32,60.98304671,,,space,5.404,0,4,4,3,1,target,penultimate,"""La senyora Martí renuncia al seu càrrec"" —dissemina prematura.",disseminar,2,,,,,,,,,,,,,,,,,,,,,,,
,,,,,,,,,,,03-11-2023_14h50.25.474,catalan_exp2,2022.1.4,Win32,60.98304671,,,space,4.6459,0,5,5,7,1,target,penultimate,"""No m'agrada que em truquis"" —li recrimina seriosa.",recriminar,2,,,,,,,,,,,,,,,,,,,,,,,
,,,,,,,,,,,03-11-2023_14h50.25.474,catalan_exp2,2022.1.4,Win32,60.98304671,,,space,4.7408,0,6,6,1,1,target,penultimate,"""La massa de l'àtom és mesurable"" —determina complaguda.",determinar,2,,,,,,,,,,,,,,,,,,,,,,,
,,,,,,,,,,,03-11-2023_14h50.25.474,catalan_exp2,2022.1.4,Win32,60.98304671,,,space,4.9069,0,7,7,9,1,target,penultimate,"""No passaré mai l'examen"" —es desanima seriós.",desanimar,2,,,,,,,,,,,,,,,,,,,,,,,
,,,,,,,,,,,03-11-2023_14h50.25.474,catalan_exp2,2022.1.4,Win32,60.98304671,,,space,5.0519,0,8,8,2,1,target,ultimate,"""Aquest és el camí més curt"" —la va descaminar complagut.",descaminar,2,,,,,,,,,,,,,,,,,,,,,,,
,,,,,,,,,,,03-11-2023_14h50.25.474,catalan_exp2,2022.1.4,Win32,60.98304671,,,space,4.6905,0,9,9,12,1,target,ultimate,"""Aquest verí va molt bé"" —va exterminar complaguda.",exterminar,2,,,,,,,,,,,,,,,,,,,,,,,
,,,,,,,,,,,03-11-2023_14h50.25.474,catalan_exp2,2022.1.4,Win32,60.98304671,,,space,5.2945,0,10,10,0,1,target,ultimate,"""No m'agraden gens les curses de braus"" —va abominar plena.",abominar,2,,,,,,,,,,,,,,,,,,,,,,,
,,,,,,,,,,,03-11-2023_14h50.25.474,catalan_exp2,2022.1.4,Win32,60.98304671,,,space,4.4345,0,11,11,8,1,target,ultimate,"""Aquest és més fort"" —va discriminar tímid.",discriminar,2,,,,,,,,,,,,,,,,,,,,,,,
,,,,,,,,,,,03-11-2023_14h50.25.474,catalan_exp2,2022.1.4,Win32,60.98304671,,,space,4.185,0,12,12,5,1,target,penultimate,"""Bon Nadal a tots"" —il·lumina content.",illuminar,2,,,,,,,,,,,,,,,,,,,,,,,
,,,,,,,,,,,03-11-2023_14h50.25.474,catalan_exp2,2022.1.4,Win32,60.98304671,,,space,4.4441,0,13,13,6,1,target,ultimate,"""Llegiu aquests articles"" —les va encaminar tímida.",encaminar,2,,,,,,,,,,,,,,,,,,,,,,,
,,,,,,,,,,,03-11-2023_14h50.25.474,catalan_exp2,2022.1.4,Win32,60.98304671,,,,,,,,,,,,,,,0,1,1,1,1,main_trial_block2.xlsx,,,,,,,,,,,,,,,,,
,,,,,,,,,,,03-11-2023_14h50.25.474,catalan_exp2,2022.1.4,Win32,60.98304671,,,,,,,,,,,,,,,,,,,,,space,12.0874,1,0,1,0,1,,,,,,,,,,
,,,,,,,,,,,03-11-2023_14h50.25.474,catalan_exp2,2022.1.4,Win32,60.98304671,,,space,5.4819,,,,,,target,ultimate,"""El president de l'estat està malalt"" —va disseminar prematura.",disseminar,1,,,,,,,,,,,,,,0,0,0,3,1,,,,,
,,,,,,,,,,,03-11-2023_14h50.25.474,catalan_exp2,2022.1.4,Win32,60.98304671,,,space,5.0131,,,,,,target,ultimate,"""Amb la pluja el vent és molt fort"" —va determinar complaguda.",determinar,1,,,,,,,,,,,,,,0,1,1,1,1,,,,,
,,,,,,,,,,,03-11-2023_14h50.25.474,catalan_exp2,2022.1.4,Win32,60.98304671,,,space,4.185,,,,,,target,penultimate,"""No m'agrada el te de camamilla"" —abomina plena.",abominar,1,,,,,,,,,,,,,,0,2,2,0,1,,,,,
,,,,,,,,,,,03-11-2023_14h50.25.474,catalan_exp2,2022.1.4,Win32,60.98304671,,,space,4.9029,,,,,,target,penultimate,"""Aquest té menys sucre"" —discrimina tímid.",discriminar,1,,,,,,,,,,,,,,0,3,3,8,1,,,,,
,,,,,,,,,,,03-11-2023_14h50.25.474,catalan_exp2,2022.1.4,Win32,60.98304671,,,space,4.6059,,,,,,target,penultimate,"""Confirmin la cita per demà"" —les encamina tímida.",encaminar,1,,,,,,,,,,,,,,0,4,4,6,1,,,,,
,,,,,,,,,,,03-11-2023_14h50.25.474,catalan_exp2,2022.1.4,Win32,60.98304671,,,space,4.4981,,,,,,target,ultimate,"""Acabo de comprar aquest llum"" —va il·luminar content.",illuminar,1,,,,,,,,,,,,,,0,5,5,5,1,,,,,
,,,,,,,,,,,03-11-2023_14h50.25.474,catalan_exp2,2022.1.4,Win32,60.98304671,,,space,4.3851,,,,,,target,penultimate,"""Escriguin la resposta"" —els examina clarament.",examinar,1,,,,,,,,,,,,,,0,6,6,4,1,,,,,
,,,,,,,,,,,03-11-2023_14h50.25.474,catalan_exp2,2022.1.4,Win32,60.98304671,,,space,4.8086,,,,,,target,penultimate,"""No hi haurà més bestioles"" —extermina complaguda.",exterminar,1,,,,,,,,,,,,,,0,7,7,12,1,,,,,
,,,,,,,,,,,03-11-2023_14h50.25.474,catalan_exp2,2022.1.4,Win32,60.98304671,,,space,4.983,,,,,,target,ultimate,"""Retrat d'un home trist"" —va denominar concret.",denominar,1,,,,,,,,,,,,,,0,8,8,13,1,,,,,
,,,,,,,,,,,03-11-2023_14h50.25.474,catalan_exp2,2022.1.4,Win32,60.98304671,,,space,5.0304,,,,,,target,penultimate,"""Aquest no és el meu número de telèfon"" —la descamina complagut.",descaminar,1,,,,,,,,,,,,,,0,9,9,2,1,,,,,
,,,,,,,,,,,03-11-2023_14h50.25.474,catalan_exp2,2022.1.4,Win32,60.98304671,,,space,3.9665,,,,,,target,penultimate,"""No són necessaris"" —elimina segura.",eliminar,1,,,,,,,,,,,,,,0,10,10,10,1,,,,,
,,,,,,,,,,,03-11-2023_14h50.25.474,catalan_exp2,2022.1.4,Win32,60.98304671,,,space,5.8828,,,,,,target,ultimate,"""Van entrar sense demanar permís"" —les va incriminar confiat.",incriminar,1,,,,,,,,,,,,,,0,11,11,11,1,,,,,
,,,,,,,,,,,03-11-2023_14h50.25.474,catalan_exp2,2022.1.4,Win32,60.98304671,,,space,5.5047,,,,,,target,ultimate,"""No puc cuinar sense cremar el menjar"" —es va desanimar seriós.",desanimar,1,,,,,,,,,,,,,,0,12,12,9,1,,,,,
,,,,,,,,,,,03-11-2023_14h50.25.474,catalan_exp2,2022.1.4,Win32,60.98304671,,,space,4.0898,,,,,,target,ultimate,"""És culpa teva"" —li va recriminar seriosa.",recriminar,1,,,,,,,,,,,,,,0,13,13,7,1,,,,,
,,,,,,,,,,,03-11-2023_14h50.25.474,catalan_exp2,2022.1.4,Win32,60.98304671,,,,,,,,,,,,,,,,,,,,main_trial_block1.xlsx,,,,,,,,,,,,,0,0,0,0,1
,,,,,,,,,,,03-11-2023_14h50.25.474,catalan_exp2,2022.1.4,Win32,60.98304671,,,space,4.8699,,,,,,target,ultimate,"""Llegiu aquests articles"" —les va encaminar tímida.",encaminar,2,,,,,,,,,,,,,,0,0,0,6,1,,,,,
,,,,,,,,,,,03-11-2023_14h50.25.474,catalan_exp2,2022.1.4,Win32,60.98304671,,,space,4.9148,,,,,,target,ultimate,"""Facin aquesta equació"" —els va examinar clarament.",examinar,2,,,,,,,,,,,,,,0,1,1,4,1,,,,,
,,,,,,,,,,,03-11-2023_14h50.25.474,catalan_exp2,2022.1.4,Win32,60.98304671,,,space,4.8295,,,,,,target,ultimate,"""Érem a casa a l'hora del crim"" —va eliminar segura.",eliminar,2,,,,,,,,,,,,,,0,2,2,10,1,,,,,
,,,,,,,,,,,03-11-2023_14h50.25.474,catalan_exp2,2022.1.4,Win32,60.98304671,,,space,5.6658,,,,,,target,penultimate,"""La senyora Martí renuncia al seu càrrec"" —dissemina prematura.",disseminar,2,,,,,,,,,,,,,,0,3,3,3,1,,,,,
,,,,,,,,,,,03-11-2023_14h50.25.474,catalan_exp2,2022.1.4,Win32,60.98304671,,,space,4.985,,,,,,target,ultimate,"""No m'agraden gens les curses de braus"" —va abominar plena.",abominar,2,,,,,,,,,,,,,,0,4,4,0,1,,,,,
,,,,,,,,,,,03-11-2023_14h50.25.474,catalan_exp2,2022.1.4,Win32,60.98304671,,,space,4.3994,,,,,,target,penultimate,"""No m'agrada que em truquis"" —li recrimina seriosa.",recriminar,2,,,,,,,,,,,,,,0,5,5,7,1,,,,,
,,,,,,,,,,,03-11-2023_14h50.25.474,catalan_exp2,2022.1.4,Win32,60.98304671,,,space,4.4909,,,,,,target,ultimate,"""Aquest verí va molt bé"" —va exterminar complaguda.",exterminar,2,,,,,,,,,,,,,,0,6,6,12,1,,,,,
,,,,,,,,,,,03-11-2023_14h50.25.474,catalan_exp2,2022.1.4,Win32,60.98304671,,,space,3.5433,,,,,,target,penultimate,"""Bon Nadal a tots"" —il·lumina content.",illuminar,2,,,,,,,,,,,,,,0,7,7,5,1,,,,,
,,,,,,,,,,,03-11-2023_14h50.25.474,catalan_exp2,2022.1.4,Win32,60.98304671,,,space,4.4148,,,,,,target,ultimate,"""Aquest és més fort"" —va discriminar tímid.",discriminar,2,,,,,,,,,,,,,,0,8,8,8,1,,,,,
,,,,,,,,,,,03-11-2023_14h50.25.474,catalan_exp2,2022.1.4,Win32,60.98304671,,,space,4.6514,,,,,,target,penultimate,"""No passaré mai l'examen"" —es desanima seriós.",desanimar,2,,,,,,,,,,,,,,0,9,9,9,1,,,,,
,,,,,,,,,,,03-11-2023_14h50.25.474,catalan_exp2,2022.1.4,Win32,60.98304671,,,space,4.7138,,,,,,target,penultimate,"""Vostès són les culpables"" —les incrimina confiat.",incriminar,2,,,,,,,,,,,,,,0,10,10,11,1,,,,,
,,,,,,,,,,,03-11-2023_14h50.25.474,catalan_exp2,2022.1.4,Win32,60.98304671,,,space,4.7118,,,,,,target,penultimate,"""Aquest gen es diu beta"" —denomina concret.",denominar,2,,,,,,,,,,,,,,0,11,11,13,1,,,,,
,,,,,,,,,,,03-11-2023_14h50.25.474,catalan_exp2,2022.1.4,Win32,60.98304671,,,space,4.7913,,,,,,target,ultimate,"""Aquest és el camí més curt"" —la va descaminar complagut.",descaminar,2,,,,,,,,,,,,,,0,12,12,2,1,,,,,
,,,,,,,,,,,03-11-2023_14h50.25.474,catalan_exp2,2022.1.4,Win32,60.98304671,,,space,5.2684,,,,,,target,penultimate,"""La massa de l'àtom és mesurable"" —determina complaguda.",determinar,2,,,,,,,,,,,,,,0,13,13,1,1,,,,,
,,,,,,,,,,,03-11-2023_14h50.25.474,catalan_exp2,2022.1.4,Win32,60.98304671,,,,,,,,,,,,,,,,,,,,main_trial_block2.xlsx,,,,,,,,,,,,,0,1,1,1,1
