key_resp.keys,key_resp.rt,key_resp_2.keys,key_resp_2.rt,trials_2.thisRepN,trials_2.thisTrialN,trials_2.thisN,trials_2.thisIndex,trials_2.ran,trialcatalan,participant ID,date,expName,psychopyVersion,OS,frameRate,key_resp_3.keys,key_resp_3.rt,key_resp_4.keys,key_resp_4.rt,trial_randomizer.thisRepN,trial_randomizer.thisTrialN,trial_randomizer.thisN,trial_randomizer.thisIndex,trial_randomizer.ran,fillertarget,stress,wordcatalan,verbcatalan,rand_12,block_randomizer.thisRepN,block_randomizer.thisTrialN,block_randomizer.thisN,block_randomizer.thisIndex,block_randomizer.ran,condsFile,key_resp_5.keys,key_resp_5.rt,mainTrialRep.thisRepN,mainTrialRep.thisTrialN,mainTrialRep.thisN,mainTrialRep.thisIndex,mainTrialRep.ran,trial_randomizer2.thisRepN,trial_randomizer2.thisTrialN,trial_randomizer2.thisN,trial_randomizer2.thisIndex,trial_randomizer2.ran,block_randomizer2.thisRepN,block_randomizer2.thisTrialN,block_randomizer2.thisN,block_randomizer2.thisIndex,block_randomizer2.ran
space,68.2532,space,4.2179,0,0,0,3,1,"""T'estimo molt"" —va sospirar content.",,02-25-2023_09h20.06.943,catalan_exp2,2022.1.4,Win32,30.00210015,,,,,,,,,,,,,,,,,,,,,,,,,,,,,,,,,,,,,
,,space,4.3315,0,1,1,1,1,"""Depèn de la temporada"" —explica seriòs.",,02-25-2023_09h20.06.943,catalan_exp2,2022.1.4,Win32,30.00210015,,,,,,,,,,,,,,,,,,,,,,,,,,,,,,,,,,,,,
,,space,4.8598,0,2,2,0,1,"""Ha regalat un pastís al seu nebot"" —va pensar confiat.",,02-25-2023_09h20.06.943,catalan_exp2,2022.1.4,Win32,30.00210015,,,,,,,,,,,,,,,,,,,,,,,,,,,,,,,,,,,,,
,,space,4.5532,0,3,3,2,1,"""Voldria una mica de cafè"" —pensa complaguda.",,02-25-2023_09h20.06.943,catalan_exp2,2022.1.4,Win32,30.00210015,,,,,,,,,,,,,,,,,,,,,,,,,,,,,,,,,,,,,
,,,,,,,,,,,02-25-2023_09h20.06.943,catalan_exp2,2022.1.4,Win32,30.00210015,space,3.6414,space,11.6749,0,0,0,2,1,target,penultimate,"""Aquest no és el meu número de telèfon"" —la descamina complagut.",descaminar,1,,,,,,,,,,,,,,,,,,,,,,,
,,,,,,,,,,,02-25-2023_09h20.06.943,catalan_exp2,2022.1.4,Win32,30.00210015,,,space,5.4463,0,1,1,9,1,target,ultimate,"""No puc cuinar sense cremar el menjar"" —es va desanimar seriós.",desanimar,1,,,,,,,,,,,,,,,,,,,,,,,
,,,,,,,,,,,02-25-2023_09h20.06.943,catalan_exp2,2022.1.4,Win32,30.00210015,,,space,5.2323,0,2,2,0,1,target,penultimate,"""No m'agrada el te de camamilla"" —abomina plena.",abominar,1,,,,,,,,,,,,,,,,,,,,,,,
,,,,,,,,,,,02-25-2023_09h20.06.943,catalan_exp2,2022.1.4,Win32,30.00210015,,,space,4.3424,0,3,3,8,1,target,penultimate,"""Aquest té menys sucre"" —discrimina tímid.",discriminar,1,,,,,,,,,,,,,,,,,,,,,,,
,,,,,,,,,,,02-25-2023_09h20.06.943,catalan_exp2,2022.1.4,Win32,30.00210015,,,space,5.6073,0,4,4,3,1,target,ultimate,"""El president de l'estat està malalt"" —va disseminar prematura.",disseminar,1,,,,,,,,,,,,,,,,,,,,,,,
,,,,,,,,,,,02-25-2023_09h20.06.943,catalan_exp2,2022.1.4,Win32,30.00210015,,,space,4.8368,0,5,5,4,1,target,penultimate,"""Escriguin la resposta"" —els examina clarament.",examinar,1,,,,,,,,,,,,,,,,,,,,,,,
,,,,,,,,,,,02-25-2023_09h20.06.943,catalan_exp2,2022.1.4,Win32,30.00210015,,,space,4.2826,0,6,6,10,1,target,penultimate,"""No són necessaris"" —elimina segura.",eliminar,1,,,,,,,,,,,,,,,,,,,,,,,
,,,,,,,,,,,02-25-2023_09h20.06.943,catalan_exp2,2022.1.4,Win32,30.00210015,,,space,5.1785,0,7,7,1,1,target,ultimate,"""Amb la pluja el vent és molt fort"" —va determinar complaguda.",determinar,1,,,,,,,,,,,,,,,,,,,,,,,
,,,,,,,,,,,02-25-2023_09h20.06.943,catalan_exp2,2022.1.4,Win32,30.00210015,,,space,5.1071,0,8,8,12,1,target,penultimate,"""No hi haurà més bestioles"" —extermina complaguda.",exterminar,1,,,,,,,,,,,,,,,,,,,,,,,
,,,,,,,,,,,02-25-2023_09h20.06.943,catalan_exp2,2022.1.4,Win32,30.00210015,,,space,9.4329,0,9,9,13,1,target,ultimate,"""Retrat d'un home trist"" —va denominar concret.",denominar,1,,,,,,,,,,,,,,,,,,,,,,,
,,,,,,,,,,,02-25-2023_09h20.06.943,catalan_exp2,2022.1.4,Win32,30.00210015,,,space,5.8983,0,10,10,6,1,target,penultimate,"""Confirmin la cita per demà"" —les encamina tímida.",encaminar,1,,,,,,,,,,,,,,,,,,,,,,,
,,,,,,,,,,,02-25-2023_09h20.06.943,catalan_exp2,2022.1.4,Win32,30.00210015,,,space,4.2518,0,11,11,7,1,target,ultimate,"""És culpa teva"" —li va recriminar seriosa.",recriminar,1,,,,,,,,,,,,,,,,,,,,,,,
,,,,,,,,,,,02-25-2023_09h20.06.943,catalan_exp2,2022.1.4,Win32,30.00210015,,,space,5.2874,0,12,12,11,1,target,ultimate,"""Van entrar sense demanar permís"" —les va incriminar confiat.",incriminar,1,,,,,,,,,,,,,,,,,,,,,,,
,,,,,,,,,,,02-25-2023_09h20.06.943,catalan_exp2,2022.1.4,Win32,30.00210015,,,space,4.5023,0,13,13,5,1,target,ultimate,"""Acabo de comprar aquest llum"" —va il·luminar content.",illuminar,1,,,,,,,,,,,,,,,,,,,,,,,
,,,,,,,,,,,02-25-2023_09h20.06.943,catalan_exp2,2022.1.4,Win32,30.00210015,,,,,,,,,,,,,,,0,0,0,0,1,main_trial_block1.xlsx,,,,,,,,,,,,,,,,,
,,,,,,,,,,,02-25-2023_09h20.06.943,catalan_exp2,2022.1.4,Win32,30.00210015,,,space,4.6876,0,0,0,11,1,target,penultimate,"""Vostès són les culpables"" —les incrimina confiat.",incriminar,2,,,,,,,,,,,,,,,,,,,,,,,
,,,,,,,,,,,02-25-2023_09h20.06.943,catalan_exp2,2022.1.4,Win32,30.00210015,,,space,5.3159,0,1,1,12,1,target,ultimate,"""Aquest verí va molt bé"" —va exterminar complaguda.",exterminar,2,,,,,,,,,,,,,,,,,,,,,,,
,,,,,,,,,,,02-25-2023_09h20.06.943,catalan_exp2,2022.1.4,Win32,30.00210015,,,space,4.9733,0,2,2,7,1,target,penultimate,"""No m'agrada que em truquis"" —li recrimina seriosa.",recriminar,2,,,,,,,,,,,,,,,,,,,,,,,
,,,,,,,,,,,02-25-2023_09h20.06.943,catalan_exp2,2022.1.4,Win32,30.00210015,,,space,3.9816,0,3,3,5,1,target,penultimate,"""Bon Nadal a tots"" —il·lumina content.",illuminar,2,,,,,,,,,,,,,,,,,,,,,,,
,,,,,,,,,,,02-25-2023_09h20.06.943,catalan_exp2,2022.1.4,Win32,30.00210015,,,space,6.0272,0,4,4,3,1,target,penultimate,"""La senyora Martí renuncia al seu càrrec"" —dissemina prematura.",disseminar,2,,,,,,,,,,,,,,,,,,,,,,,
,,,,,,,,,,,02-25-2023_09h20.06.943,catalan_exp2,2022.1.4,Win32,30.00210015,,,space,5.2393,0,5,5,1,1,target,penultimate,"""La massa de l'àtom és mesurable"" —determina complaguda.",determinar,2,,,,,,,,,,,,,,,,,,,,,,,
,,,,,,,,,,,02-25-2023_09h20.06.943,catalan_exp2,2022.1.4,Win32,30.00210015,,,space,4.8997,0,6,6,2,1,target,ultimate,"""Aquest és el camí més curt"" —la va descaminar complagut.",descaminar,2,,,,,,,,,,,,,,,,,,,,,,,
,,,,,,,,,,,02-25-2023_09h20.06.943,catalan_exp2,2022.1.4,Win32,30.00210015,,,space,5.343,0,7,7,0,1,target,ultimate,"""No m'agraden gens les curses de braus"" —va abominar plena.",abominar,2,,,,,,,,,,,,,,,,,,,,,,,
,,,,,,,,,,,02-25-2023_09h20.06.943,catalan_exp2,2022.1.4,Win32,30.00210015,,,space,4.7036,0,8,8,4,1,target,ultimate,"""Facin aquesta equació"" —els va examinar clarament.",examinar,2,,,,,,,,,,,,,,,,,,,,,,,
,,,,,,,,,,,02-25-2023_09h20.06.943,catalan_exp2,2022.1.4,Win32,30.00210015,,,space,4.7423,0,9,9,9,1,target,penultimate,"""No passaré mai l'examen"" —es desanima seriós.",desanimar,2,,,,,,,,,,,,,,,,,,,,,,,
,,,,,,,,,,,02-25-2023_09h20.06.943,catalan_exp2,2022.1.4,Win32,30.00210015,,,space,4.8547,0,10,10,6,1,target,ultimate,"""Llegiu aquests articles"" —les va encaminar tímida.",encaminar,2,,,,,,,,,,,,,,,,,,,,,,,
,,,,,,,,,,,02-25-2023_09h20.06.943,catalan_exp2,2022.1.4,Win32,30.00210015,,,space,4.6702,0,11,11,10,1,target,ultimate,"""Érem a casa a l'hora del crim"" —va eliminar segura.",eliminar,2,,,,,,,,,,,,,,,,,,,,,,,
,,,,,,,,,,,02-25-2023_09h20.06.943,catalan_exp2,2022.1.4,Win32,30.00210015,,,space,10.3095,0,12,12,13,1,target,penultimate,"""Aquest gen es diu beta"" —denomina concret.",denominar,2,,,,,,,,,,,,,,,,,,,,,,,
,,,,,,,,,,,02-25-2023_09h20.06.943,catalan_exp2,2022.1.4,Win32,30.00210015,,,space,4.3049,0,13,13,8,1,target,ultimate,"""Aquest és més fort"" —va discriminar tímid.",discriminar,2,,,,,,,,,,,,,,,,,,,,,,,
,,,,,,,,,,,02-25-2023_09h20.06.943,catalan_exp2,2022.1.4,Win32,30.00210015,,,,,,,,,,,,,,,0,1,1,1,1,main_trial_block2.xlsx,,,,,,,,,,,,,,,,,
,,,,,,,,,,,02-25-2023_09h20.06.943,catalan_exp2,2022.1.4,Win32,30.00210015,,,,,,,,,,,,,,,,,,,,,space,13.1165,0,0,0,0,1,,,,,,,,,,
,,,,,,,,,,,02-25-2023_09h20.06.943,catalan_exp2,2022.1.4,Win32,30.00210015,,,space,4.9299,0,0,0,9,1,target,ultimate,"""No puc cuinar sense cremar el menjar"" —es va desanimar seriós.",desanimar,1,,,,,,,,,,,,,,,,,,,,,,,
,,,,,,,,,,,02-25-2023_09h20.06.943,catalan_exp2,2022.1.4,Win32,30.00210015,,,space,4.0817,0,1,1,8,1,target,penultimate,"""Aquest té menys sucre"" —discrimina tímid.",discriminar,1,,,,,,,,,,,,,,,,,,,,,,,
,,,,,,,,,,,02-25-2023_09h20.06.943,catalan_exp2,2022.1.4,Win32,30.00210015,,,space,4.3135,0,2,2,13,1,target,ultimate,"""Retrat d'un home trist"" —va denominar concret.",denominar,1,,,,,,,,,,,,,,,,,,,,,,,
,,,,,,,,,,,02-25-2023_09h20.06.943,catalan_exp2,2022.1.4,Win32,30.00210015,,,space,4.8366,0,3,3,3,1,target,ultimate,"""El president de l'estat està malalt"" —va disseminar prematura.",disseminar,1,,,,,,,,,,,,,,,,,,,,,,,
,,,,,,,,,,,02-25-2023_09h20.06.943,catalan_exp2,2022.1.4,Win32,30.00210015,,,space,4.7332,0,4,4,1,1,target,ultimate,"""Amb la pluja el vent és molt fort"" —va determinar complaguda.",determinar,1,,,,,,,,,,,,,,,,,,,,,,,
,,,,,,,,,,,02-25-2023_09h20.06.943,catalan_exp2,2022.1.4,Win32,30.00210015,,,space,4.7005,0,5,5,2,1,target,penultimate,"""Aquest no és el meu número de telèfon"" —la descamina complagut.",descaminar,1,,,,,,,,,,,,,,,,,,,,,,,
,,,,,,,,,,,02-25-2023_09h20.06.943,catalan_exp2,2022.1.4,Win32,30.00210015,,,space,4.0999,0,6,6,5,1,target,ultimate,"""Acabo de comprar aquest llum"" —va il·luminar content.",illuminar,1,,,,,,,,,,,,,,,,,,,,,,,
,,,,,,,,,,,02-25-2023_09h20.06.943,catalan_exp2,2022.1.4,Win32,30.00210015,,,space,3.885,0,7,7,10,1,target,penultimate,"""No són necessaris"" —elimina segura.",eliminar,1,,,,,,,,,,,,,,,,,,,,,,,
,,,,,,,,,,,02-25-2023_09h20.06.943,catalan_exp2,2022.1.4,Win32,30.00210015,,,space,5.425,0,8,8,11,1,target,ultimate,"""Van entrar sense demanar permís"" —les va incriminar confiat.",incriminar,1,,,,,,,,,,,,,,,,,,,,,,,
,,,,,,,,,,,02-25-2023_09h20.06.943,catalan_exp2,2022.1.4,Win32,30.00210015,,,space,4.1786,0,9,9,7,1,target,ultimate,"""És culpa teva"" —li va recriminar seriosa.",recriminar,1,,,,,,,,,,,,,,,,,,,,,,,
,,,,,,,,,,,02-25-2023_09h20.06.943,catalan_exp2,2022.1.4,Win32,30.00210015,,,space,4.551,0,10,10,4,1,target,penultimate,"""Escriguin la resposta"" —els examina clarament.",examinar,1,,,,,,,,,,,,,,,,,,,,,,,
,,,,,,,,,,,02-25-2023_09h20.06.943,catalan_exp2,2022.1.4,Win32,30.00210015,,,space,4.6996,0,11,11,6,1,target,penultimate,"""Confirmin la cita per demà"" —les encamina tímida.",encaminar,1,,,,,,,,,,,,,,,,,,,,,,,
,,,,,,,,,,,02-25-2023_09h20.06.943,catalan_exp2,2022.1.4,Win32,30.00210015,,,space,5.3,0,12,12,0,1,target,penultimate,"""No m'agrada el te de camamilla"" —abomina plena.",abominar,1,,,,,,,,,,,,,,,,,,,,,,,
,,,,,,,,,,,02-25-2023_09h20.06.943,catalan_exp2,2022.1.4,Win32,30.00210015,,,space,4.5975,0,13,13,12,1,target,penultimate,"""No hi haurà més bestioles"" —extermina complaguda.",exterminar,1,,,,,,,,,,,,,,,,,,,,,,,
,,,,,,,,,,,02-25-2023_09h20.06.943,catalan_exp2,2022.1.4,Win32,30.00210015,,,,,,,,,,,,,,,0,0,0,0,1,main_trial_block1.xlsx,,,,,,,,,,,,,,,,,
,,,,,,,,,,,02-25-2023_09h20.06.943,catalan_exp2,2022.1.4,Win32,30.00210015,,,space,4.7661,0,0,0,8,1,target,ultimate,"""Aquest és més fort"" —va discriminar tímid.",discriminar,2,,,,,,,,,,,,,,,,,,,,,,,
,,,,,,,,,,,02-25-2023_09h20.06.943,catalan_exp2,2022.1.4,Win32,30.00210015,,,space,5.2171,0,1,1,4,1,target,ultimate,"""Facin aquesta equació"" —els va examinar clarament.",examinar,2,,,,,,,,,,,,,,,,,,,,,,,
,,,,,,,,,,,02-25-2023_09h20.06.943,catalan_exp2,2022.1.4,Win32,30.00210015,,,space,5.2019,0,2,2,12,1,target,ultimate,"""Aquest verí va molt bé"" —va exterminar complaguda.",exterminar,2,,,,,,,,,,,,,,,,,,,,,,,
,,,,,,,,,,,02-25-2023_09h20.06.943,catalan_exp2,2022.1.4,Win32,30.00210015,,,space,4.6549,0,3,3,13,1,target,penultimate,"""Aquest gen es diu beta"" —denomina concret.",denominar,2,,,,,,,,,,,,,,,,,,,,,,,
,,,,,,,,,,,02-25-2023_09h20.06.943,catalan_exp2,2022.1.4,Win32,30.00210015,,,space,5.1116,0,4,4,2,1,target,ultimate,"""Aquest és el camí més curt"" —la va descaminar complagut.",descaminar,2,,,,,,,,,,,,,,,,,,,,,,,
,,,,,,,,,,,02-25-2023_09h20.06.943,catalan_exp2,2022.1.4,Win32,30.00210015,,,space,4.842,0,5,5,9,1,target,penultimate,"""No passaré mai l'examen"" —es desanima seriós.",desanimar,2,,,,,,,,,,,,,,,,,,,,,,,
,,,,,,,,,,,02-25-2023_09h20.06.943,catalan_exp2,2022.1.4,Win32,30.00210015,,,space,4.5327,0,6,6,5,1,target,penultimate,"""Bon Nadal a tots"" —il·lumina content.",illuminar,2,,,,,,,,,,,,,,,,,,,,,,,
,,,,,,,,,,,02-25-2023_09h20.06.943,catalan_exp2,2022.1.4,Win32,30.00210015,,,space,4.353,0,7,7,11,1,target,penultimate,"""Vostès són les culpables"" —les incrimina confiat.",incriminar,2,,,,,,,,,,,,,,,,,,,,,,,
,,,,,,,,,,,02-25-2023_09h20.06.943,catalan_exp2,2022.1.4,Win32,30.00210015,,,space,5.0671,0,8,8,7,1,target,penultimate,"""No m'agrada que em truquis"" —li recrimina seriosa.",recriminar,2,,,,,,,,,,,,,,,,,,,,,,,
,,,,,,,,,,,02-25-2023_09h20.06.943,catalan_exp2,2022.1.4,Win32,30.00210015,,,space,5.1851,0,9,9,3,1,target,penultimate,"""La senyora Martí renuncia al seu càrrec"" —dissemina prematura.",disseminar,2,,,,,,,,,,,,,,,,,,,,,,,
,,,,,,,,,,,02-25-2023_09h20.06.943,catalan_exp2,2022.1.4,Win32,30.00210015,,,space,4.823,0,10,10,6,1,target,ultimate,"""Llegiu aquests articles"" —les va encaminar tímida.",encaminar,2,,,,,,,,,,,,,,,,,,,,,,,
,,,,,,,,,,,02-25-2023_09h20.06.943,catalan_exp2,2022.1.4,Win32,30.00210015,,,space,4.805,0,11,11,10,1,target,ultimate,"""Érem a casa a l'hora del crim"" —va eliminar segura.",eliminar,2,,,,,,,,,,,,,,,,,,,,,,,
,,,,,,,,,,,02-25-2023_09h20.06.943,catalan_exp2,2022.1.4,Win32,30.00210015,,,space,5.0274,0,12,12,1,1,target,penultimate,"""La massa de l'àtom és mesurable"" —determina complaguda.",determinar,2,,,,,,,,,,,,,,,,,,,,,,,
,,,,,,,,,,,02-25-2023_09h20.06.943,catalan_exp2,2022.1.4,Win32,30.00210015,,,space,5.1211,0,13,13,0,1,target,ultimate,"""No m'agraden gens les curses de braus"" —va abominar plena.",abominar,2,,,,,,,,,,,,,,,,,,,,,,,
,,,,,,,,,,,02-25-2023_09h20.06.943,catalan_exp2,2022.1.4,Win32,30.00210015,,,,,,,,,,,,,,,0,1,1,1,1,main_trial_block2.xlsx,,,,,,,,,,,,,,,,,
,,,,,,,,,,,02-25-2023_09h20.06.943,catalan_exp2,2022.1.4,Win32,30.00210015,,,,,,,,,,,,,,,,,,,,,space,13.5119,1,0,1,0,1,,,,,,,,,,
,,,,,,,,,,,02-25-2023_09h20.06.943,catalan_exp2,2022.1.4,Win32,30.00210015,,,space,5.6784,,,,,,target,ultimate,"""El president de l'estat està malalt"" —va disseminar prematura.",disseminar,1,,,,,,,,,,,,,,0,0,0,3,1,,,,,
,,,,,,,,,,,02-25-2023_09h20.06.943,catalan_exp2,2022.1.4,Win32,30.00210015,,,space,5.033,,,,,,target,ultimate,"""Van entrar sense demanar permís"" —les va incriminar confiat.",incriminar,1,,,,,,,,,,,,,,0,1,1,11,1,,,,,
,,,,,,,,,,,02-25-2023_09h20.06.943,catalan_exp2,2022.1.4,Win32,30.00210015,,,space,5.0112,,,,,,target,penultimate,"""Aquest no és el meu número de telèfon"" —la descamina complagut.",descaminar,1,,,,,,,,,,,,,,0,2,2,2,1,,,,,
,,,,,,,,,,,02-25-2023_09h20.06.943,catalan_exp2,2022.1.4,Win32,30.00210015,,,space,4.3113,,,,,,target,penultimate,"""Aquest té menys sucre"" —discrimina tímid.",discriminar,1,,,,,,,,,,,,,,0,3,3,8,1,,,,,
,,,,,,,,,,,02-25-2023_09h20.06.943,catalan_exp2,2022.1.4,Win32,30.00210015,,,space,4.1742,,,,,,target,ultimate,"""És culpa teva"" —li va recriminar seriosa.",recriminar,1,,,,,,,,,,,,,,0,4,4,7,1,,,,,
,,,,,,,,,,,02-25-2023_09h20.06.943,catalan_exp2,2022.1.4,Win32,30.00210015,,,space,4.8485,,,,,,target,ultimate,"""No puc cuinar sense cremar el menjar"" —es va desanimar seriós.",desanimar,1,,,,,,,,,,,,,,0,5,5,9,1,,,,,
,,,,,,,,,,,02-25-2023_09h20.06.943,catalan_exp2,2022.1.4,Win32,30.00210015,,,space,5.0208,,,,,,target,ultimate,"""Amb la pluja el vent és molt fort"" —va determinar complaguda.",determinar,1,,,,,,,,,,,,,,0,6,6,1,1,,,,,
,,,,,,,,,,,02-25-2023_09h20.06.943,catalan_exp2,2022.1.4,Win32,30.00210015,,,space,4.4902,,,,,,target,penultimate,"""Escriguin la resposta"" —els examina clarament.",examinar,1,,,,,,,,,,,,,,0,7,7,4,1,,,,,
,,,,,,,,,,,02-25-2023_09h20.06.943,catalan_exp2,2022.1.4,Win32,30.00210015,,,space,4.4414,,,,,,target,ultimate,"""Retrat d'un home trist"" —va denominar concret.",denominar,1,,,,,,,,,,,,,,0,8,8,13,1,,,,,
,,,,,,,,,,,02-25-2023_09h20.06.943,catalan_exp2,2022.1.4,Win32,30.00210015,,,space,4.4032,,,,,,target,penultimate,"""No hi haurà més bestioles"" —extermina complaguda.",exterminar,1,,,,,,,,,,,,,,0,9,9,12,1,,,,,
,,,,,,,,,,,02-25-2023_09h20.06.943,catalan_exp2,2022.1.4,Win32,30.00210015,,,space,4.166,,,,,,target,ultimate,"""Acabo de comprar aquest llum"" —va il·luminar content.",illuminar,1,,,,,,,,,,,,,,0,10,10,5,1,,,,,
,,,,,,,,,,,02-25-2023_09h20.06.943,catalan_exp2,2022.1.4,Win32,30.00210015,,,space,5.185,,,,,,target,penultimate,"""Confirmin la cita per demà"" —les encamina tímida.",encaminar,1,,,,,,,,,,,,,,0,11,11,6,1,,,,,
,,,,,,,,,,,02-25-2023_09h20.06.943,catalan_exp2,2022.1.4,Win32,30.00210015,,,space,3.9346,,,,,,target,penultimate,"""No són necessaris"" —elimina segura.",eliminar,1,,,,,,,,,,,,,,0,12,12,10,1,,,,,
,,,,,,,,,,,02-25-2023_09h20.06.943,catalan_exp2,2022.1.4,Win32,30.00210015,,,space,4.7683,,,,,,target,penultimate,"""No m'agrada el te de camamilla"" —abomina plena.",abominar,1,,,,,,,,,,,,,,0,13,13,0,1,,,,,
,,,,,,,,,,,02-25-2023_09h20.06.943,catalan_exp2,2022.1.4,Win32,30.00210015,,,,,,,,,,,,,,,,,,,,main_trial_block1.xlsx,,,,,,,,,,,,,0,0,0,0,1
,,,,,,,,,,,02-25-2023_09h20.06.943,catalan_exp2,2022.1.4,Win32,30.00210015,,,space,4.5474,,,,,,target,ultimate,"""Facin aquesta equació"" —els va examinar clarament.",examinar,2,,,,,,,,,,,,,,0,0,0,4,1,,,,,
,,,,,,,,,,,02-25-2023_09h20.06.943,catalan_exp2,2022.1.4,Win32,30.00210015,,,space,4.0394,,,,,,target,ultimate,"""Aquest és més fort"" —va discriminar tímid.",discriminar,2,,,,,,,,,,,,,,0,1,1,8,1,,,,,
,,,,,,,,,,,02-25-2023_09h20.06.943,catalan_exp2,2022.1.4,Win32,30.00210015,,,space,4.7694,,,,,,target,ultimate,"""No m'agraden gens les curses de braus"" —va abominar plena.",abominar,2,,,,,,,,,,,,,,0,2,2,0,1,,,,,
,,,,,,,,,,,02-25-2023_09h20.06.943,catalan_exp2,2022.1.4,Win32,30.00210015,,,space,4.242,,,,,,target,penultimate,"""No passaré mai l'examen"" —es desanima seriós.",desanimar,2,,,,,,,,,,,,,,0,3,3,9,1,,,,,
,,,,,,,,,,,02-25-2023_09h20.06.943,catalan_exp2,2022.1.4,Win32,30.00210015,,,space,4.4371,,,,,,target,ultimate,"""Llegiu aquests articles"" —les va encaminar tímida.",encaminar,2,,,,,,,,,,,,,,0,4,4,6,1,,,,,
,,,,,,,,,,,02-25-2023_09h20.06.943,catalan_exp2,2022.1.4,Win32,30.00210015,,,space,3.7517,,,,,,target,penultimate,"""Bon Nadal a tots"" —il·lumina content.",illuminar,2,,,,,,,,,,,,,,0,5,5,5,1,,,,,
,,,,,,,,,,,02-25-2023_09h20.06.943,catalan_exp2,2022.1.4,Win32,30.00210015,,,space,3.8933,,,,,,target,penultimate,"""Aquest gen es diu beta"" —denomina concret.",denominar,2,,,,,,,,,,,,,,0,6,6,13,1,,,,,
,,,,,,,,,,,02-25-2023_09h20.06.943,catalan_exp2,2022.1.4,Win32,30.00210015,,,space,4.5157,,,,,,target,ultimate,"""Aquest és el camí més curt"" —la va descaminar complagut.",descaminar,2,,,,,,,,,,,,,,0,7,7,2,1,,,,,
,,,,,,,,,,,02-25-2023_09h20.06.943,catalan_exp2,2022.1.4,Win32,30.00210015,,,space,4.8876,,,,,,target,penultimate,"""La massa de l'àtom és mesurable"" —determina complaguda.",determinar,2,,,,,,,,,,,,,,0,8,8,1,1,,,,,
,,,,,,,,,,,02-25-2023_09h20.06.943,catalan_exp2,2022.1.4,Win32,30.00210015,,,space,4.3417,,,,,,target,ultimate,"""Aquest verí va molt bé"" —va exterminar complaguda.",exterminar,2,,,,,,,,,,,,,,0,9,9,12,1,,,,,
,,,,,,,,,,,02-25-2023_09h20.06.943,catalan_exp2,2022.1.4,Win32,30.00210015,,,space,4.2834,,,,,,target,penultimate,"""No m'agrada que em truquis"" —li recrimina seriosa.",recriminar,2,,,,,,,,,,,,,,0,10,10,7,1,,,,,
,,,,,,,,,,,02-25-2023_09h20.06.943,catalan_exp2,2022.1.4,Win32,30.00210015,,,space,5.0325,,,,,,target,penultimate,"""La senyora Martí renuncia al seu càrrec"" —dissemina prematura.",disseminar,2,,,,,,,,,,,,,,0,11,11,3,1,,,,,
,,,,,,,,,,,02-25-2023_09h20.06.943,catalan_exp2,2022.1.4,Win32,30.00210015,,,space,4.1618,,,,,,target,ultimate,"""Érem a casa a l'hora del crim"" —va eliminar segura.",eliminar,2,,,,,,,,,,,,,,0,12,12,10,1,,,,,
,,,,,,,,,,,02-25-2023_09h20.06.943,catalan_exp2,2022.1.4,Win32,30.00210015,,,space,4.2558,,,,,,target,penultimate,"""Vostès són les culpables"" —les incrimina confiat.",incriminar,2,,,,,,,,,,,,,,0,13,13,11,1,,,,,
,,,,,,,,,,,02-25-2023_09h20.06.943,catalan_exp2,2022.1.4,Win32,30.00210015,,,,,,,,,,,,,,,,,,,,main_trial_block2.xlsx,,,,,,,,,,,,,0,1,1,1,1
