key_resp.keys,key_resp.rt,key_resp_2.keys,key_resp_2.rt,trials_2.thisRepN,trials_2.thisTrialN,trials_2.thisN,trials_2.thisIndex,trials_2.ran,trialcatalan,participant ID,date,expName,psychopyVersion,OS,frameRate,key_resp_3.keys,key_resp_3.rt,key_resp_4.keys,key_resp_4.rt,trial_randomizer.thisRepN,trial_randomizer.thisTrialN,trial_randomizer.thisN,trial_randomizer.thisIndex,trial_randomizer.ran,fillertarget,stress,wordcatalan,verbcatalan,rand_12,block_randomizer.thisRepN,block_randomizer.thisTrialN,block_randomizer.thisN,block_randomizer.thisIndex,block_randomizer.ran,condsFile,key_resp_5.keys,key_resp_5.rt,mainTrialRep.thisRepN,mainTrialRep.thisTrialN,mainTrialRep.thisN,mainTrialRep.thisIndex,mainTrialRep.ran,trial_randomizer2.thisRepN,trial_randomizer2.thisTrialN,trial_randomizer2.thisN,trial_randomizer2.thisIndex,trial_randomizer2.ran,block_randomizer2.thisRepN,block_randomizer2.thisTrialN,block_randomizer2.thisN,block_randomizer2.thisIndex,block_randomizer2.ran
space,65.7651,space,5.8322,0,0,0,1,1,"""Depèn de la temporada"" —explica seriòs.",,2023-02-21_14h56.09.076,catalan_exp2,2022.1.4,Win32,30.16318282,,,,,,,,,,,,,,,,,,,,,,,,,,,,,,,,,,,,,
,,space,5.2917,0,1,1,2,1,"""Voldria una mica de cafè"" —pensa complaguda.",,2023-02-21_14h56.09.076,catalan_exp2,2022.1.4,Win32,30.16318282,,,,,,,,,,,,,,,,,,,,,,,,,,,,,,,,,,,,,
,,space,5.2869,0,2,2,0,1,"""Ha regalat un pastís al seu nebot"" —va pensar confiat.",,2023-02-21_14h56.09.076,catalan_exp2,2022.1.4,Win32,30.16318282,,,,,,,,,,,,,,,,,,,,,,,,,,,,,,,,,,,,,
,,space,4.2855,0,3,3,3,1,"""T'estimo molt"" —va sospirar content.",,2023-02-21_14h56.09.076,catalan_exp2,2022.1.4,Win32,30.16318282,,,,,,,,,,,,,,,,,,,,,,,,,,,,,,,,,,,,,
,,,,,,,,,,,2023-02-21_14h56.09.076,catalan_exp2,2022.1.4,Win32,30.16318282,space,8.0107,space,5.4245,0,0,0,0,1,target,penultimate,"""No m'agrada el te de camamilla"" —abomina plena.",abominar,1,,,,,,,,,,,,,,,,,,,,,,,
,,,,,,,,,,,2023-02-21_14h56.09.076,catalan_exp2,2022.1.4,Win32,30.16318282,,,space,6.6067,0,1,1,11,1,target,ultimate,"""Van entrar sense demanar permís"" —les va incriminar confiat.",incriminar,1,,,,,,,,,,,,,,,,,,,,,,,
,,,,,,,,,,,2023-02-21_14h56.09.076,catalan_exp2,2022.1.4,Win32,30.16318282,,,space,5.5801,0,2,2,3,1,target,ultimate,"""El president de l'estat està malalt"" —va disseminar prematura.",disseminar,1,,,,,,,,,,,,,,,,,,,,,,,
,,,,,,,,,,,2023-02-21_14h56.09.076,catalan_exp2,2022.1.4,Win32,30.16318282,,,space,4.4015,0,3,3,10,1,target,penultimate,"""No són necessaris"" —elimina segura.",eliminar,1,,,,,,,,,,,,,,,,,,,,,,,
,,,,,,,,,,,2023-02-21_14h56.09.076,catalan_exp2,2022.1.4,Win32,30.16318282,,,space,5.5157,0,4,4,13,1,target,ultimate,"""Retrat d'un home trist"" —va denominar concret.",denominar,1,,,,,,,,,,,,,,,,,,,,,,,
,,,,,,,,,,,2023-02-21_14h56.09.076,catalan_exp2,2022.1.4,Win32,30.16318282,,,space,5.0812,0,5,5,8,1,target,penultimate,"""Aquest té menys sucre"" —discrimina tímid.",discriminar,1,,,,,,,,,,,,,,,,,,,,,,,
,,,,,,,,,,,2023-02-21_14h56.09.076,catalan_exp2,2022.1.4,Win32,30.16318282,,,space,5.8761,0,6,6,9,1,target,ultimate,"""No puc cuinar sense cremar el menjar"" —es va desanimar seriós.",desanimar,1,,,,,,,,,,,,,,,,,,,,,,,
,,,,,,,,,,,2023-02-21_14h56.09.076,catalan_exp2,2022.1.4,Win32,30.16318282,,,space,5.4826,0,7,7,7,1,target,ultimate,"""És culpa teva"" —li va recriminar seriosa.",recriminar,1,,,,,,,,,,,,,,,,,,,,,,,
,,,,,,,,,,,2023-02-21_14h56.09.076,catalan_exp2,2022.1.4,Win32,30.16318282,,,space,5.5702,0,8,8,12,1,target,penultimate,"""No hi haurà més bestioles"" —extermina complaguda.",exterminar,1,,,,,,,,,,,,,,,,,,,,,,,
,,,,,,,,,,,2023-02-21_14h56.09.076,catalan_exp2,2022.1.4,Win32,30.16318282,,,space,5.6906,0,9,9,1,1,target,ultimate,"""Amb la pluja el vent és molt fort"" —va determinar complaguda.",determinar,1,,,,,,,,,,,,,,,,,,,,,,,
,,,,,,,,,,,2023-02-21_14h56.09.076,catalan_exp2,2022.1.4,Win32,30.16318282,,,space,6.4387,0,10,10,6,1,target,penultimate,"""Confirmin la cita per demà"" —les encamina tímida.",encaminar,1,,,,,,,,,,,,,,,,,,,,,,,
,,,,,,,,,,,2023-02-21_14h56.09.076,catalan_exp2,2022.1.4,Win32,30.16318282,,,space,5.6522,0,11,11,4,1,target,penultimate,"""Escriguin la resposta"" —els examina clarament.",examinar,1,,,,,,,,,,,,,,,,,,,,,,,
,,,,,,,,,,,2023-02-21_14h56.09.076,catalan_exp2,2022.1.4,Win32,30.16318282,,,space,5.7955,0,12,12,5,1,target,ultimate,"""Acabo de comprar aquest llum"" —va il·luminar content.",illuminar,1,,,,,,,,,,,,,,,,,,,,,,,
,,,,,,,,,,,2023-02-21_14h56.09.076,catalan_exp2,2022.1.4,Win32,30.16318282,,,space,6.0941,0,13,13,2,1,target,penultimate,"""Aquest no és el meu número de telèfon"" —la descamina complagut.",descaminar,1,,,,,,,,,,,,,,,,,,,,,,,
,,,,,,,,,,,2023-02-21_14h56.09.076,catalan_exp2,2022.1.4,Win32,30.16318282,,,,,,,,,,,,,,,0,0,0,0,1,main_trial_block1.xlsx,,,,,,,,,,,,,,,,,
,,,,,,,,,,,2023-02-21_14h56.09.076,catalan_exp2,2022.1.4,Win32,30.16318282,,,space,5.3794,0,0,0,13,1,target,penultimate,"""Aquest gen es diu beta"" —denomina concret.",denominar,2,,,,,,,,,,,,,,,,,,,,,,,
,,,,,,,,,,,2023-02-21_14h56.09.076,catalan_exp2,2022.1.4,Win32,30.16318282,,,space,4.8707,0,1,1,8,1,target,ultimate,"""Aquest és més fort"" —va discriminar tímid.",discriminar,2,,,,,,,,,,,,,,,,,,,,,,,
,,,,,,,,,,,2023-02-21_14h56.09.076,catalan_exp2,2022.1.4,Win32,30.16318282,,,space,5.1286,0,2,2,4,1,target,ultimate,"""Facin aquesta equació"" —els va examinar clarament.",examinar,2,,,,,,,,,,,,,,,,,,,,,,,
,,,,,,,,,,,2023-02-21_14h56.09.076,catalan_exp2,2022.1.4,Win32,30.16318282,,,space,5.1932,0,3,3,9,1,target,penultimate,"""No passaré mai l'examen"" —es desanima seriós.",desanimar,2,,,,,,,,,,,,,,,,,,,,,,,
,,,,,,,,,,,2023-02-21_14h56.09.076,catalan_exp2,2022.1.4,Win32,30.16318282,,,space,4.9786,0,4,4,12,1,target,ultimate,"""Aquest verí va molt bé"" —va exterminar complaguda.",exterminar,2,,,,,,,,,,,,,,,,,,,,,,,
,,,,,,,,,,,2023-02-21_14h56.09.076,catalan_exp2,2022.1.4,Win32,30.16318282,,,space,5.244,0,5,5,0,1,target,ultimate,"""No m'agraden gens les curses de braus"" —va abominar plena.",abominar,2,,,,,,,,,,,,,,,,,,,,,,,
,,,,,,,,,,,2023-02-21_14h56.09.076,catalan_exp2,2022.1.4,Win32,30.16318282,,,space,5.7097,0,6,6,6,1,target,ultimate,"""Llegiu aquests articles"" —les va encaminar tímida.",encaminar,2,,,,,,,,,,,,,,,,,,,,,,,
,,,,,,,,,,,2023-02-21_14h56.09.076,catalan_exp2,2022.1.4,Win32,30.16318282,,,space,5.5268,0,7,7,10,1,target,ultimate,"""Érem a casa a l'hora del crim"" —va eliminar segura.",eliminar,2,,,,,,,,,,,,,,,,,,,,,,,
,,,,,,,,,,,2023-02-21_14h56.09.076,catalan_exp2,2022.1.4,Win32,30.16318282,,,space,5.4183,0,8,8,2,1,target,ultimate,"""Aquest és el camí més curt"" —la va descaminar complagut.",descaminar,2,,,,,,,,,,,,,,,,,,,,,,,
,,,,,,,,,,,2023-02-21_14h56.09.076,catalan_exp2,2022.1.4,Win32,30.16318282,,,space,5.7154,0,9,9,1,1,target,penultimate,"""La massa de l'àtom és mesurable"" —determina complaguda.",determinar,2,,,,,,,,,,,,,,,,,,,,,,,
,,,,,,,,,,,2023-02-21_14h56.09.076,catalan_exp2,2022.1.4,Win32,30.16318282,,,space,6.1267,0,10,10,3,1,target,penultimate,"""La senyora Martí renuncia al seu càrrec"" —dissemina prematura.",disseminar,2,,,,,,,,,,,,,,,,,,,,,,,
,,,,,,,,,,,2023-02-21_14h56.09.076,catalan_exp2,2022.1.4,Win32,30.16318282,,,space,4.9357,0,11,11,5,1,target,penultimate,"""Bon Nadal a tots"" —il·lumina content.",illuminar,2,,,,,,,,,,,,,,,,,,,,,,,
,,,,,,,,,,,2023-02-21_14h56.09.076,catalan_exp2,2022.1.4,Win32,30.16318282,,,space,5.3233,0,12,12,7,1,target,penultimate,"""No m'agrada que em truquis"" —li recrimina seriosa.",recriminar,2,,,,,,,,,,,,,,,,,,,,,,,
,,,,,,,,,,,2023-02-21_14h56.09.076,catalan_exp2,2022.1.4,Win32,30.16318282,,,space,5.5733,0,13,13,11,1,target,penultimate,"""Vostès són les culpables"" —les incrimina confiat.",incriminar,2,,,,,,,,,,,,,,,,,,,,,,,
,,,,,,,,,,,2023-02-21_14h56.09.076,catalan_exp2,2022.1.4,Win32,30.16318282,,,,,,,,,,,,,,,0,1,1,1,1,main_trial_block2.xlsx,,,,,,,,,,,,,,,,,
,,,,,,,,,,,2023-02-21_14h56.09.076,catalan_exp2,2022.1.4,Win32,30.16318282,,,,,,,,,,,,,,,,,,,,,space,11.1981,0,0,0,0,1,,,,,,,,,,
,,,,,,,,,,,2023-02-21_14h56.09.076,catalan_exp2,2022.1.4,Win32,30.16318282,,,space,6.4906,0,0,0,2,1,target,ultimate,"""Aquest és el camí més curt"" —la va descaminar complagut.",descaminar,2,,,,,,,,,,,,,,,,,,,,,,,
,,,,,,,,,,,2023-02-21_14h56.09.076,catalan_exp2,2022.1.4,Win32,30.16318282,,,space,5.4553,0,1,1,8,1,target,ultimate,"""Aquest és més fort"" —va discriminar tímid.",discriminar,2,,,,,,,,,,,,,,,,,,,,,,,
,,,,,,,,,,,2023-02-21_14h56.09.076,catalan_exp2,2022.1.4,Win32,30.16318282,,,space,5.4806,0,2,2,3,1,target,penultimate,"""La senyora Martí renuncia al seu càrrec"" —dissemina prematura.",disseminar,2,,,,,,,,,,,,,,,,,,,,,,,
,,,,,,,,,,,2023-02-21_14h56.09.076,catalan_exp2,2022.1.4,Win32,30.16318282,,,space,4.821,0,3,3,4,1,target,ultimate,"""Facin aquesta equació"" —els va examinar clarament.",examinar,2,,,,,,,,,,,,,,,,,,,,,,,
,,,,,,,,,,,2023-02-21_14h56.09.076,catalan_exp2,2022.1.4,Win32,30.16318282,,,space,4.7785,0,4,4,13,1,target,penultimate,"""Aquest gen es diu beta"" —denomina concret.",denominar,2,,,,,,,,,,,,,,,,,,,,,,,
,,,,,,,,,,,2023-02-21_14h56.09.076,catalan_exp2,2022.1.4,Win32,30.16318282,,,space,5.0373,0,5,5,9,1,target,penultimate,"""No passaré mai l'examen"" —es desanima seriós.",desanimar,2,,,,,,,,,,,,,,,,,,,,,,,
,,,,,,,,,,,2023-02-21_14h56.09.076,catalan_exp2,2022.1.4,Win32,30.16318282,,,space,5.6832,0,6,6,7,1,target,penultimate,"""No m'agrada que em truquis"" —li recrimina seriosa.",recriminar,2,,,,,,,,,,,,,,,,,,,,,,,
,,,,,,,,,,,2023-02-21_14h56.09.076,catalan_exp2,2022.1.4,Win32,30.16318282,,,space,6.2939,0,7,7,11,1,target,penultimate,"""Vostès són les culpables"" —les incrimina confiat.",incriminar,2,,,,,,,,,,,,,,,,,,,,,,,
,,,,,,,,,,,2023-02-21_14h56.09.076,catalan_exp2,2022.1.4,Win32,30.16318282,,,space,5.8064,0,8,8,6,1,target,ultimate,"""Llegiu aquests articles"" —les va encaminar tímida.",encaminar,2,,,,,,,,,,,,,,,,,,,,,,,
,,,,,,,,,,,2023-02-21_14h56.09.076,catalan_exp2,2022.1.4,Win32,30.16318282,,,space,5.3494,0,9,9,12,1,target,ultimate,"""Aquest verí va molt bé"" —va exterminar complaguda.",exterminar,2,,,,,,,,,,,,,,,,,,,,,,,
,,,,,,,,,,,2023-02-21_14h56.09.076,catalan_exp2,2022.1.4,Win32,30.16318282,,,space,7.2062,0,10,10,0,1,target,ultimate,"""No m'agraden gens les curses de braus"" —va abominar plena.",abominar,2,,,,,,,,,,,,,,,,,,,,,,,
,,,,,,,,,,,2023-02-21_14h56.09.076,catalan_exp2,2022.1.4,Win32,30.16318282,,,space,6.2202,0,11,11,10,1,target,ultimate,"""Érem a casa a l'hora del crim"" —va eliminar segura.",eliminar,2,,,,,,,,,,,,,,,,,,,,,,,
,,,,,,,,,,,2023-02-21_14h56.09.076,catalan_exp2,2022.1.4,Win32,30.16318282,,,space,5.9785,0,12,12,1,1,target,penultimate,"""La massa de l'àtom és mesurable"" —determina complaguda.",determinar,2,,,,,,,,,,,,,,,,,,,,,,,
,,,,,,,,,,,2023-02-21_14h56.09.076,catalan_exp2,2022.1.4,Win32,30.16318282,,,space,5.0413,0,13,13,5,1,target,penultimate,"""Bon Nadal a tots"" —il·lumina content.",illuminar,2,,,,,,,,,,,,,,,,,,,,,,,
,,,,,,,,,,,2023-02-21_14h56.09.076,catalan_exp2,2022.1.4,Win32,30.16318282,,,,,,,,,,,,,,,0,0,0,1,1,main_trial_block2.xlsx,,,,,,,,,,,,,,,,,
,,,,,,,,,,,2023-02-21_14h56.09.076,catalan_exp2,2022.1.4,Win32,30.16318282,,,space,5.5333,0,0,0,6,1,target,penultimate,"""Confirmin la cita per demà"" —les encamina tímida.",encaminar,1,,,,,,,,,,,,,,,,,,,,,,,
,,,,,,,,,,,2023-02-21_14h56.09.076,catalan_exp2,2022.1.4,Win32,30.16318282,,,space,4.9387,0,1,1,7,1,target,ultimate,"""És culpa teva"" —li va recriminar seriosa.",recriminar,1,,,,,,,,,,,,,,,,,,,,,,,
,,,,,,,,,,,2023-02-21_14h56.09.076,catalan_exp2,2022.1.4,Win32,30.16318282,,,space,5.5618,0,2,2,3,1,target,ultimate,"""El president de l'estat està malalt"" —va disseminar prematura.",disseminar,1,,,,,,,,,,,,,,,,,,,,,,,
,,,,,,,,,,,2023-02-21_14h56.09.076,catalan_exp2,2022.1.4,Win32,30.16318282,,,space,4.5875,0,3,3,10,1,target,penultimate,"""No són necessaris"" —elimina segura.",eliminar,1,,,,,,,,,,,,,,,,,,,,,,,
,,,,,,,,,,,2023-02-21_14h56.09.076,catalan_exp2,2022.1.4,Win32,30.16318282,,,space,4.9535,0,4,4,13,1,target,ultimate,"""Retrat d'un home trist"" —va denominar concret.",denominar,1,,,,,,,,,,,,,,,,,,,,,,,
,,,,,,,,,,,2023-02-21_14h56.09.076,catalan_exp2,2022.1.4,Win32,30.16318282,,,space,5.9837,0,5,5,11,1,target,ultimate,"""Van entrar sense demanar permís"" —les va incriminar confiat.",incriminar,1,,,,,,,,,,,,,,,,,,,,,,,
,,,,,,,,,,,2023-02-21_14h56.09.076,catalan_exp2,2022.1.4,Win32,30.16318282,,,space,5.0322,0,6,6,12,1,target,penultimate,"""No hi haurà més bestioles"" —extermina complaguda.",exterminar,1,,,,,,,,,,,,,,,,,,,,,,,
,,,,,,,,,,,2023-02-21_14h56.09.076,catalan_exp2,2022.1.4,Win32,30.16318282,,,space,5.7175,0,7,7,1,1,target,ultimate,"""Amb la pluja el vent és molt fort"" —va determinar complaguda.",determinar,1,,,,,,,,,,,,,,,,,,,,,,,
,,,,,,,,,,,2023-02-21_14h56.09.076,catalan_exp2,2022.1.4,Win32,30.16318282,,,space,5.7748,0,8,8,9,1,target,ultimate,"""No puc cuinar sense cremar el menjar"" —es va desanimar seriós.",desanimar,1,,,,,,,,,,,,,,,,,,,,,,,
,,,,,,,,,,,2023-02-21_14h56.09.076,catalan_exp2,2022.1.4,Win32,30.16318282,,,space,4.9016,0,9,9,8,1,target,penultimate,"""Aquest té menys sucre"" —discrimina tímid.",discriminar,1,,,,,,,,,,,,,,,,,,,,,,,
,,,,,,,,,,,2023-02-21_14h56.09.076,catalan_exp2,2022.1.4,Win32,30.16318282,,,space,6.1567,0,10,10,2,1,target,penultimate,"""Aquest no és el meu número de telèfon"" —la descamina complagut.",descaminar,1,,,,,,,,,,,,,,,,,,,,,,,
,,,,,,,,,,,2023-02-21_14h56.09.076,catalan_exp2,2022.1.4,Win32,30.16318282,,,space,5.2025,0,11,11,4,1,target,penultimate,"""Escriguin la resposta"" —els examina clarament.",examinar,1,,,,,,,,,,,,,,,,,,,,,,,
,,,,,,,,,,,2023-02-21_14h56.09.076,catalan_exp2,2022.1.4,Win32,30.16318282,,,space,4.9358,0,12,12,0,1,target,penultimate,"""No m'agrada el te de camamilla"" —abomina plena.",abominar,1,,,,,,,,,,,,,,,,,,,,,,,
,,,,,,,,,,,2023-02-21_14h56.09.076,catalan_exp2,2022.1.4,Win32,30.16318282,,,space,5.3768,0,13,13,5,1,target,ultimate,"""Acabo de comprar aquest llum"" —va il·luminar content.",illuminar,1,,,,,,,,,,,,,,,,,,,,,,,
,,,,,,,,,,,2023-02-21_14h56.09.076,catalan_exp2,2022.1.4,Win32,30.16318282,,,,,,,,,,,,,,,0,1,1,0,1,main_trial_block1.xlsx,,,,,,,,,,,,,,,,,
,,,,,,,,,,,2023-02-21_14h56.09.076,catalan_exp2,2022.1.4,Win32,30.16318282,,,,,,,,,,,,,,,,,,,,,space,9.0269,1,0,1,0,1,,,,,,,,,,
,,,,,,,,,,,2023-02-21_14h56.09.076,catalan_exp2,2022.1.4,Win32,30.16318282,,,space,4.5468,,,,,,target,penultimate,"""No són necessaris"" —elimina segura.",eliminar,1,,,,,,,,,,,,,,0,0,0,10,1,,,,,
,,,,,,,,,,,2023-02-21_14h56.09.076,catalan_exp2,2022.1.4,Win32,30.16318282,,,space,4.2877,,,,,,target,ultimate,"""És culpa teva"" —li va recriminar seriosa.",recriminar,1,,,,,,,,,,,,,,0,1,1,7,1,,,,,
,,,,,,,,,,,2023-02-21_14h56.09.076,catalan_exp2,2022.1.4,Win32,30.16318282,,,space,6.0052,,,,,,target,ultimate,"""El president de l'estat està malalt"" —va disseminar prematura.",disseminar,1,,,,,,,,,,,,,,0,2,2,3,1,,,,,
,,,,,,,,,,,2023-02-21_14h56.09.076,catalan_exp2,2022.1.4,Win32,30.16318282,,,space,15.1208,,,,,,target,penultimate,"""Aquest no és el meu número de telèfon"" —la descamina complagut.",descaminar,1,,,,,,,,,,,,,,0,3,3,2,1,,,,,
,,,,,,,,,,,2023-02-21_14h56.09.076,catalan_exp2,2022.1.4,Win32,30.16318282,,,space,5.4894,,,,,,target,penultimate,"""Escriguin la resposta"" —els examina clarament.",examinar,1,,,,,,,,,,,,,,0,4,4,4,1,,,,,
,,,,,,,,,,,2023-02-21_14h56.09.076,catalan_exp2,2022.1.4,Win32,30.16318282,,,space,5.6902,,,,,,target,ultimate,"""Acabo de comprar aquest llum"" —va il·luminar content.",illuminar,1,,,,,,,,,,,,,,0,5,5,5,1,,,,,
,,,,,,,,,,,2023-02-21_14h56.09.076,catalan_exp2,2022.1.4,Win32,30.16318282,,,space,14.4869,,,,,,target,ultimate,"""No puc cuinar sense cremar el menjar"" —es va desanimar seriós.",desanimar,1,,,,,,,,,,,,,,0,6,6,9,1,,,,,
,,,,,,,,,,,2023-02-21_14h56.09.076,catalan_exp2,2022.1.4,Win32,30.16318282,,,space,6.046,,,,,,target,ultimate,"""Van entrar sense demanar permís"" —les va incriminar confiat.",incriminar,1,,,,,,,,,,,,,,0,7,7,11,1,,,,,
,,,,,,,,,,,2023-02-21_14h56.09.076,catalan_exp2,2022.1.4,Win32,30.16318282,,,space,5.9068,,,,,,target,penultimate,"""No m'agrada el te de camamilla"" —abomina plena.",abominar,1,,,,,,,,,,,,,,0,8,8,0,1,,,,,
,,,,,,,,,,,2023-02-21_14h56.09.076,catalan_exp2,2022.1.4,Win32,30.16318282,,,space,5.3461,,,,,,target,ultimate,"""Amb la pluja el vent és molt fort"" —va determinar complaguda.",determinar,1,,,,,,,,,,,,,,0,9,9,1,1,,,,,
,,,,,,,,,,,2023-02-21_14h56.09.076,catalan_exp2,2022.1.4,Win32,30.16318282,,,space,6.6642,,,,,,target,penultimate,"""Confirmin la cita per demà"" —les encamina tímida.",encaminar,1,,,,,,,,,,,,,,0,10,10,6,1,,,,,
,,,,,,,,,,,2023-02-21_14h56.09.076,catalan_exp2,2022.1.4,Win32,30.16318282,,,space,7.5405,,,,,,target,penultimate,"""Aquest té menys sucre"" —discrimina tímid.",discriminar,1,,,,,,,,,,,,,,0,11,11,8,1,,,,,
,,,,,,,,,,,2023-02-21_14h56.09.076,catalan_exp2,2022.1.4,Win32,30.16318282,,,space,5.7004,,,,,,target,penultimate,"""No hi haurà més bestioles"" —extermina complaguda.",exterminar,1,,,,,,,,,,,,,,0,12,12,12,1,,,,,
,,,,,,,,,,,2023-02-21_14h56.09.076,catalan_exp2,2022.1.4,Win32,30.16318282,,,space,5.7387,,,,,,target,ultimate,"""Retrat d'un home trist"" —va denominar concret.",denominar,1,,,,,,,,,,,,,,0,13,13,13,1,,,,,
,,,,,,,,,,,2023-02-21_14h56.09.076,catalan_exp2,2022.1.4,Win32,30.16318282,,,,,,,,,,,,,,,,,,,,main_trial_block1.xlsx,,,,,,,,,,,,,0,0,0,0,1
,,,,,,,,,,,2023-02-21_14h56.09.076,catalan_exp2,2022.1.4,Win32,30.16318282,,,space,5.285,,,,,,target,ultimate,"""Facin aquesta equació"" —els va examinar clarament.",examinar,2,,,,,,,,,,,,,,0,0,0,4,1,,,,,
,,,,,,,,,,,2023-02-21_14h56.09.076,catalan_exp2,2022.1.4,Win32,30.16318282,,,space,5.2042,,,,,,target,penultimate,"""Bon Nadal a tots"" —il·lumina content.",illuminar,2,,,,,,,,,,,,,,0,1,1,5,1,,,,,
,,,,,,,,,,,2023-02-21_14h56.09.076,catalan_exp2,2022.1.4,Win32,30.16318282,,,space,6.2471,,,,,,target,ultimate,"""No m'agraden gens les curses de braus"" —va abominar plena.",abominar,2,,,,,,,,,,,,,,0,2,2,0,1,,,,,
,,,,,,,,,,,2023-02-21_14h56.09.076,catalan_exp2,2022.1.4,Win32,30.16318282,,,space,5.269,,,,,,target,penultimate,"""La senyora Martí renuncia al seu càrrec"" —dissemina prematura.",disseminar,2,,,,,,,,,,,,,,0,3,3,3,1,,,,,
,,,,,,,,,,,2023-02-21_14h56.09.076,catalan_exp2,2022.1.4,Win32,30.16318282,,,space,6.0237,,,,,,target,penultimate,"""La massa de l'àtom és mesurable"" —determina complaguda.",determinar,2,,,,,,,,,,,,,,0,4,4,1,1,,,,,
,,,,,,,,,,,2023-02-21_14h56.09.076,catalan_exp2,2022.1.4,Win32,30.16318282,,,space,6.3868,,,,,,target,ultimate,"""Aquest és el camí més curt"" —la va descaminar complagut.",descaminar,2,,,,,,,,,,,,,,0,5,5,2,1,,,,,
,,,,,,,,,,,2023-02-21_14h56.09.076,catalan_exp2,2022.1.4,Win32,30.16318282,,,space,5.4551,,,,,,target,ultimate,"""Aquest és més fort"" —va discriminar tímid.",discriminar,2,,,,,,,,,,,,,,0,6,6,8,1,,,,,
,,,,,,,,,,,2023-02-21_14h56.09.076,catalan_exp2,2022.1.4,Win32,30.16318282,,,space,6.3454,,,,,,target,penultimate,"""Aquest gen es diu beta"" —denomina concret.",denominar,2,,,,,,,,,,,,,,0,7,7,13,1,,,,,
,,,,,,,,,,,2023-02-21_14h56.09.076,catalan_exp2,2022.1.4,Win32,30.16318282,,,space,4.7418,,,,,,target,ultimate,"""Aquest verí va molt bé"" —va exterminar complaguda.",exterminar,2,,,,,,,,,,,,,,0,8,8,12,1,,,,,
,,,,,,,,,,,2023-02-21_14h56.09.076,catalan_exp2,2022.1.4,Win32,30.16318282,,,space,5.1138,,,,,,target,ultimate,"""Llegiu aquests articles"" —les va encaminar tímida.",encaminar,2,,,,,,,,,,,,,,0,9,9,6,1,,,,,
,,,,,,,,,,,2023-02-21_14h56.09.076,catalan_exp2,2022.1.4,Win32,30.16318282,,,space,5.1917,,,,,,target,penultimate,"""Vostès són les culpables"" —les incrimina confiat.",incriminar,2,,,,,,,,,,,,,,0,10,10,11,1,,,,,
,,,,,,,,,,,2023-02-21_14h56.09.076,catalan_exp2,2022.1.4,Win32,30.16318282,,,space,5.2834,,,,,,target,penultimate,"""No passaré mai l'examen"" —es desanima seriós.",desanimar,2,,,,,,,,,,,,,,0,11,11,9,1,,,,,
,,,,,,,,,,,2023-02-21_14h56.09.076,catalan_exp2,2022.1.4,Win32,30.16318282,,,space,5.1303,,,,,,target,ultimate,"""Érem a casa a l'hora del crim"" —va eliminar segura.",eliminar,2,,,,,,,,,,,,,,0,12,12,10,1,,,,,
,,,,,,,,,,,2023-02-21_14h56.09.076,catalan_exp2,2022.1.4,Win32,30.16318282,,,space,4.7522,,,,,,target,penultimate,"""No m'agrada que em truquis"" —li recrimina seriosa.",recriminar,2,,,,,,,,,,,,,,0,13,13,7,1,,,,,
,,,,,,,,,,,2023-02-21_14h56.09.076,catalan_exp2,2022.1.4,Win32,30.16318282,,,,,,,,,,,,,,,,,,,,main_trial_block2.xlsx,,,,,,,,,,,,,0,1,1,1,1
