key_resp.keys,key_resp.rt,key_resp_2.keys,key_resp_2.rt,trials_2.thisRepN,trials_2.thisTrialN,trials_2.thisN,trials_2.thisIndex,trials_2.ran,trialspanish,participant ID,date,expName,psychopyVersion,OS,frameRate,key_resp_3.keys,key_resp_3.rt,key_resp_4.keys,key_resp_4.rt,trials_randomizer.thisRepN,trials_randomizer.thisTrialN,trials_randomizer.thisN,trials_randomizer.thisIndex,trials_randomizer.ran,fillertarget,stress,wordspanish,verbspanish,rand_12,block_randomizer.thisRepN,block_randomizer.thisTrialN,block_randomizer.thisN,block_randomizer.thisIndex,block_randomizer.ran,condsFile,key_resp_5.keys,key_resp_5.rt,mainTrialReps.thisRepN,mainTrialReps.thisTrialN,mainTrialReps.thisN,mainTrialReps.thisIndex,mainTrialReps.ran,trials_randomizer2.thisRepN,trials_randomizer2.thisTrialN,trials_randomizer2.thisN,trials_randomizer2.thisIndex,trials_randomizer2.ran,block_randomizer2.thisRepN,block_randomizer2.thisTrialN,block_randomizer2.thisN,block_randomizer2.thisIndex,block_randomizer2.ran
space,3405.1574,space,6.182,0,0,0,2,1,"""Me gustaría un café"" —pienso complacido.",eum191,03-09-2023_19h59.33.923,spanish_exp2,2022.1.4,Win32,59.22767117,,,,,,,,,,,,,,,,,,,,,,,,,,,,,,,,,,,,,
,,space,8.3672,0,1,1,0,1,"""Le regaló una camiseta a su sobrino"" —digo contento.",eum191,03-09-2023_19h59.33.923,spanish_exp2,2022.1.4,Win32,59.22767117,,,,,,,,,,,,,,,,,,,,,,,,,,,,,,,,,,,,,
,,space,12.5472,0,2,2,1,1,"""Depende del clima"" —respondió claramente.",eum191,03-09-2023_19h59.33.923,spanish_exp2,2022.1.4,Win32,59.22767117,,,,,,,,,,,,,,,,,,,,,,,,,,,,,,,,,,,,,
,,space,7.0145,0,3,3,3,1,"""Te quiero mucho"" —suspiró contenta Teresa.",eum191,03-09-2023_19h59.33.923,spanish_exp2,2022.1.4,Win32,59.22767117,,,,,,,,,,,,,,,,,,,,,,,,,,,,,,,,,,,,,
,,,,,,,,,,eum191,03-09-2023_19h59.33.923,spanish_exp2,2022.1.4,Win32,59.22767117,space,0.933,space,10.4945,0,0,0,3,1,target,penultimate,"""La directora Pérez renuncia a su cargo"" —disemino compungido.",diseminar,2,,,,,,,,,,,,,,,,,,,,,,,
,,,,,,,,,,eum191,03-09-2023_19h59.33.923,spanish_exp2,2022.1.4,Win32,59.22767117,,,space,14.6787,0,1,1,4,1,target,ultimate,"""Desarrollen esta ecuación"" —los examinó seriamente.",examinar,2,,,,,,,,,,,,,,,,,,,,,,,
,,,,,,,,,,eum191,03-09-2023_19h59.33.923,spanish_exp2,2022.1.4,Win32,59.22767117,,,space,7.0061,0,2,2,11,1,target,penultimate,"""Los Osvald, culpables"" —les incrimino seguro.",incriminar,2,,,,,,,,,,,,,,,,,,,,,,,
,,,,,,,,,,eum191,03-09-2023_19h59.33.923,spanish_exp2,2022.1.4,Win32,59.22767117,,,space,5.9669,0,3,3,13,1,target,penultimate,"""Se llamará beta"" —lo denomino complacido.",denominar,2,,,,,,,,,,,,,,,,,,,,,,,
,,,,,,,,,,eum191,03-09-2023_19h59.33.923,spanish_exp2,2022.1.4,Win32,59.22767117,,,space,7.143,0,4,4,1,1,target,penultimate,"""La masa del átomo es medible"" —determino complacida.",determinar,2,,,,,,,,,,,,,,,,,,,,,,,
,,,,,,,,,,eum191,03-09-2023_19h59.33.923,spanish_exp2,2022.1.4,Win32,59.22767117,,,space,6.246,0,5,5,8,1,target,ultimate,"""Este es más fuerte"" —discriminó tímida.",discriminar,2,,,,,,,,,,,,,,,,,,,,,,,
,,,,,,,,,,eum191,03-09-2023_19h59.33.923,spanish_exp2,2022.1.4,Win32,59.22767117,,,space,6.8328,0,6,6,9,1,target,penultimate,"""No puedo estudiar matemáticas"" —me desanimo compungida.",desanimar,2,,,,,,,,,,,,,,,,,,,,,,,
,,,,,,,,,,eum191,03-09-2023_19h59.33.923,spanish_exp2,2022.1.4,Win32,59.22767117,,,space,6.6527,0,7,7,6,1,target,ultimate,"""Lee estos artículos"" —le encaminó con ilusión.",encaminar,2,,,,,,,,,,,,,,,,,,,,,,,
,,,,,,,,,,eum191,03-09-2023_19h59.33.923,spanish_exp2,2022.1.4,Win32,59.22767117,,,space,6.8842,0,8,8,5,1,target,penultimate,"""Estas son las luces nuevas"" —ilumino contenta.",iluminar,2,,,,,,,,,,,,,,,,,,,,,,,
,,,,,,,,,,eum191,03-09-2023_19h59.33.923,spanish_exp2,2022.1.4,Win32,59.22767117,,,space,7.7177,0,9,9,2,1,target,ultimate,"""Este es el camino más corto"" —la descaminó complacido.",descaminar,2,,,,,,,,,,,,,,,,,,,,,,,
,,,,,,,,,,eum191,03-09-2023_19h59.33.923,spanish_exp2,2022.1.4,Win32,59.22767117,,,space,6.2832,0,10,10,10,1,target,ultimate,"""Tarjeta roja"" —los eliminó segura.",eliminar,2,,,,,,,,,,,,,,,,,,,,,,,
,,,,,,,,,,eum191,03-09-2023_19h59.33.923,spanish_exp2,2022.1.4,Win32,59.22767117,,,space,9.3187,0,11,11,12,1,target,ultimate,"""Este insecticida es muy eficaz"" —exterminó complacida.",exterminar,2,,,,,,,,,,,,,,,,,,,,,,,
,,,,,,,,,,eum191,03-09-2023_19h59.33.923,spanish_exp2,2022.1.4,Win32,59.22767117,,,space,7.3426,0,12,12,0,1,target,ultimate,"""No me gustan las corridas"" —abominó con certeza.",abominar,2,,,,,,,,,,,,,,,,,,,,,,,
,,,,,,,,,,eum191,03-09-2023_19h59.33.923,spanish_exp2,2022.1.4,Win32,59.22767117,,,space,9.5851,0,13,13,7,1,target,penultimate,"""No me gusta su conducta"" —les recrimino con intensidad.",recriminar,2,,,,,,,,,,,,,,,,,,,,,,,
,,,,,,,,,,eum191,03-09-2023_19h59.33.923,spanish_exp2,2022.1.4,Win32,59.22767117,,,,,,,,,,,,,,,0,0,0,1,1,main_trial_block2.xlsx,,,,,,,,,,,,,,,,,
,,,,,,,,,,eum191,03-09-2023_19h59.33.923,spanish_exp2,2022.1.4,Win32,59.22767117,,,space,12.3777,0,0,0,1,1,target,ultimate,"""Con la lluvia el viento es muy fuerte"" —determinó complacida.",determinar,1,,,,,,,,,,,,,,,,,,,,,,,
,,,,,,,,,,eum191,03-09-2023_19h59.33.923,spanish_exp2,2022.1.4,Win32,59.22767117,,,space,8.3623,0,1,1,0,1,target,penultimate,"""No me gusta el té de manzanilla"" —abomino con certeza.",abominar,1,,,,,,,,,,,,,,,,,,,,,,,
,,,,,,,,,,eum191,03-09-2023_19h59.33.923,spanish_exp2,2022.1.4,Win32,59.22767117,,,space,6.1865,0,2,2,13,1,target,ultimate,"""Retrato de un hombre triste"" —lo denominó complacido. ",denominar,1,,,,,,,,,,,,,,,,,,,,,,,
,,,,,,,,,,eum191,03-09-2023_19h59.33.923,spanish_exp2,2022.1.4,Win32,59.22767117,,,space,6.1485,0,3,3,3,1,target,ultimate,"""El presidente del estado se encuentra enfermo"" —diseminó compungido.",diseminar,1,,,,,,,,,,,,,,,,,,,,,,,
,,,,,,,,,,eum191,03-09-2023_19h59.33.923,spanish_exp2,2022.1.4,Win32,59.22767117,,,space,5.5149,0,4,4,5,1,target,ultimate,"""Compré esta lámpara ayer"" —iluminó contenta.",iluminar,1,,,,,,,,,,,,,,,,,,,,,,,
,,,,,,,,,,eum191,03-09-2023_19h59.33.923,spanish_exp2,2022.1.4,Win32,59.22767117,,,space,5.3865,0,5,5,10,1,target,penultimate,"""No son necesarios"" —los elimino segura.",eliminar,1,,,,,,,,,,,,,,,,,,,,,,,
,,,,,,,,,,eum191,03-09-2023_19h59.33.923,spanish_exp2,2022.1.4,Win32,59.22767117,,,space,6.0184,0,6,6,4,1,target,penultimate,"""Escriban la respuesta"" —los examino seriamente.",examinar,1,,,,,,,,,,,,,,,,,,,,,,,
,,,,,,,,,,eum191,03-09-2023_19h59.33.923,spanish_exp2,2022.1.4,Win32,59.22767117,,,space,5.8074,0,7,7,8,1,target,penultimate,"""Este tiene menos azúcar"" —discrimino tímida.",discriminar,1,,,,,,,,,,,,,,,,,,,,,,,
,,,,,,,,,,eum191,03-09-2023_19h59.33.923,spanish_exp2,2022.1.4,Win32,59.22767117,,,space,6.4545,0,8,8,11,1,target,ultimate,"""Entraron sin pedir permiso"" —les incriminó seguro.",incriminar,1,,,,,,,,,,,,,,,,,,,,,,,
,,,,,,,,,,eum191,03-09-2023_19h59.33.923,spanish_exp2,2022.1.4,Win32,59.22767117,,,space,6.7225,0,9,9,12,1,target,penultimate,"""No habrá más cucarachas"" —extermino complacida.",exterminar,1,,,,,,,,,,,,,,,,,,,,,,,
,,,,,,,,,,eum191,03-09-2023_19h59.33.923,spanish_exp2,2022.1.4,Win32,59.22767117,,,space,6.8656,0,10,10,9,1,target,ultimate,"""No puedo cocinar sin quemar la comida"" —me desanimó compungida.",desanimar,1,,,,,,,,,,,,,,,,,,,,,,,
,,,,,,,,,,eum191,03-09-2023_19h59.33.923,spanish_exp2,2022.1.4,Win32,59.22767117,,,space,11.018,0,11,11,2,1,target,penultimate,"""Este no es mi número de teléfono"" —la descamino complacido.",descaminar,1,,,,,,,,,,,,,,,,,,,,,,,
,,,,,,,,,,eum191,03-09-2023_19h59.33.923,spanish_exp2,2022.1.4,Win32,59.22767117,,,space,6.4184,0,12,12,7,1,target,ultimate,"""Me robaron"" —les recriminó con intensidad.",recriminar,1,,,,,,,,,,,,,,,,,,,,,,,
,,,,,,,,,,eum191,03-09-2023_19h59.33.923,spanish_exp2,2022.1.4,Win32,59.22767117,,,space,6.8333,0,13,13,6,1,target,penultimate,"""Confirma la cita para mañana"" —le encamino con ilusión. ",encaminar,1,,,,,,,,,,,,,,,,,,,,,,,
,,,,,,,,,,eum191,03-09-2023_19h59.33.923,spanish_exp2,2022.1.4,Win32,59.22767117,,,,,,,,,,,,,,,0,1,1,0,1,main_trial_block1.xlsx,,,,,,,,,,,,,,,,,
,,,,,,,,,,eum191,03-09-2023_19h59.33.923,spanish_exp2,2022.1.4,Win32,59.22767117,,,,,,,,,,,,,,,,,,,,,space,10.8372,0,0,0,0,1,,,,,,,,,,
,,,,,,,,,,eum191,03-09-2023_19h59.33.923,spanish_exp2,2022.1.4,Win32,59.22767117,,,space,6.6491,0,0,0,7,1,target,penultimate,"""No me gusta su conducta"" —les recrimino con intensidad.",recriminar,2,,,,,,,,,,,,,,,,,,,,,,,
,,,,,,,,,,eum191,03-09-2023_19h59.33.923,spanish_exp2,2022.1.4,Win32,59.22767117,,,space,5.5949,0,1,1,3,1,target,penultimate,"""La directora Pérez renuncia a su cargo"" —disemino compungido.",diseminar,2,,,,,,,,,,,,,,,,,,,,,,,
,,,,,,,,,,eum191,03-09-2023_19h59.33.923,spanish_exp2,2022.1.4,Win32,59.22767117,,,space,4.9866,0,2,2,8,1,target,ultimate,"""Este es más fuerte"" —discriminó tímida.",discriminar,2,,,,,,,,,,,,,,,,,,,,,,,
,,,,,,,,,,eum191,03-09-2023_19h59.33.923,spanish_exp2,2022.1.4,Win32,59.22767117,,,space,5.4346,0,3,3,1,1,target,penultimate,"""La masa del átomo es medible"" —determino complacida.",determinar,2,,,,,,,,,,,,,,,,,,,,,,,
,,,,,,,,,,eum191,03-09-2023_19h59.33.923,spanish_exp2,2022.1.4,Win32,59.22767117,,,space,5.8664,0,4,4,2,1,target,ultimate,"""Este es el camino más corto"" —la descaminó complacido.",descaminar,2,,,,,,,,,,,,,,,,,,,,,,,
,,,,,,,,,,eum191,03-09-2023_19h59.33.923,spanish_exp2,2022.1.4,Win32,59.22767117,,,space,5.9148,0,5,5,12,1,target,ultimate,"""Este insecticida es muy eficaz"" —exterminó complacida.",exterminar,2,,,,,,,,,,,,,,,,,,,,,,,
,,,,,,,,,,eum191,03-09-2023_19h59.33.923,spanish_exp2,2022.1.4,Win32,59.22767117,,,space,5.0646,0,6,6,13,1,target,penultimate,"""Se llamará beta"" —lo denomino complacido.",denominar,2,,,,,,,,,,,,,,,,,,,,,,,
,,,,,,,,,,eum191,03-09-2023_19h59.33.923,spanish_exp2,2022.1.4,Win32,59.22767117,,,space,4.5246,0,7,7,10,1,target,ultimate,"""Tarjeta roja"" —los eliminó segura.",eliminar,2,,,,,,,,,,,,,,,,,,,,,,,
,,,,,,,,,,eum191,03-09-2023_19h59.33.923,spanish_exp2,2022.1.4,Win32,59.22767117,,,space,5.7873,0,8,8,6,1,target,ultimate,"""Lee estos artículos"" —le encaminó con ilusión.",encaminar,2,,,,,,,,,,,,,,,,,,,,,,,
,,,,,,,,,,eum191,03-09-2023_19h59.33.923,spanish_exp2,2022.1.4,Win32,59.22767117,,,space,6.0494,0,9,9,4,1,target,ultimate,"""Desarrollen esta ecuación"" —los examinó seriamente.",examinar,2,,,,,,,,,,,,,,,,,,,,,,,
,,,,,,,,,,eum191,03-09-2023_19h59.33.923,spanish_exp2,2022.1.4,Win32,59.22767117,,,space,5.773,0,10,10,9,1,target,penultimate,"""No puedo estudiar matemáticas"" —me desanimo compungida.",desanimar,2,,,,,,,,,,,,,,,,,,,,,,,
,,,,,,,,,,eum191,03-09-2023_19h59.33.923,spanish_exp2,2022.1.4,Win32,59.22767117,,,space,5.7256,0,11,11,11,1,target,penultimate,"""Los Osvald, culpables"" —les incrimino seguro.",incriminar,2,,,,,,,,,,,,,,,,,,,,,,,
,,,,,,,,,,eum191,03-09-2023_19h59.33.923,spanish_exp2,2022.1.4,Win32,59.22767117,,,space,5.3148,0,12,12,0,1,target,ultimate,"""No me gustan las corridas"" —abominó con certeza.",abominar,2,,,,,,,,,,,,,,,,,,,,,,,
,,,,,,,,,,eum191,03-09-2023_19h59.33.923,spanish_exp2,2022.1.4,Win32,59.22767117,,,space,4.9018,0,13,13,5,1,target,penultimate,"""Estas son las luces nuevas"" —ilumino contenta.",iluminar,2,,,,,,,,,,,,,,,,,,,,,,,
,,,,,,,,,,eum191,03-09-2023_19h59.33.923,spanish_exp2,2022.1.4,Win32,59.22767117,,,,,,,,,,,,,,,0,0,0,1,1,main_trial_block2.xlsx,,,,,,,,,,,,,,,,,
,,,,,,,,,,eum191,03-09-2023_19h59.33.923,spanish_exp2,2022.1.4,Win32,59.22767117,,,space,5.3135,0,0,0,11,1,target,ultimate,"""Entraron sin pedir permiso"" —les incriminó seguro.",incriminar,1,,,,,,,,,,,,,,,,,,,,,,,
,,,,,,,,,,eum191,03-09-2023_19h59.33.923,spanish_exp2,2022.1.4,Win32,59.22767117,,,space,6.4322,0,1,1,3,1,target,ultimate,"""El presidente del estado se encuentra enfermo"" —diseminó compungido.",diseminar,1,,,,,,,,,,,,,,,,,,,,,,,
,,,,,,,,,,eum191,03-09-2023_19h59.33.923,spanish_exp2,2022.1.4,Win32,59.22767117,,,space,5.3131,0,2,2,4,1,target,penultimate,"""Escriban la respuesta"" —los examino seriamente.",examinar,1,,,,,,,,,,,,,,,,,,,,,,,
,,,,,,,,,,eum191,03-09-2023_19h59.33.923,spanish_exp2,2022.1.4,Win32,59.22767117,,,space,5.0851,0,3,3,5,1,target,ultimate,"""Compré esta lámpara ayer"" —iluminó contenta.",iluminar,1,,,,,,,,,,,,,,,,,,,,,,,
,,,,,,,,,,eum191,03-09-2023_19h59.33.923,spanish_exp2,2022.1.4,Win32,59.22767117,,,space,5.8409,0,4,4,13,1,target,ultimate,"""Retrato de un hombre triste"" —lo denominó complacido. ",denominar,1,,,,,,,,,,,,,,,,,,,,,,,
,,,,,,,,,,eum191,03-09-2023_19h59.33.923,spanish_exp2,2022.1.4,Win32,59.22767117,,,space,4.8738,0,5,5,10,1,target,penultimate,"""No son necesarios"" —los elimino segura.",eliminar,1,,,,,,,,,,,,,,,,,,,,,,,
,,,,,,,,,,eum191,03-09-2023_19h59.33.923,spanish_exp2,2022.1.4,Win32,59.22767117,,,space,5.1196,0,6,6,7,1,target,ultimate,"""Me robaron"" —les recriminó con intensidad.",recriminar,1,,,,,,,,,,,,,,,,,,,,,,,
,,,,,,,,,,eum191,03-09-2023_19h59.33.923,spanish_exp2,2022.1.4,Win32,59.22767117,,,space,6.0659,0,7,7,6,1,target,penultimate,"""Confirma la cita para mañana"" —le encamino con ilusión. ",encaminar,1,,,,,,,,,,,,,,,,,,,,,,,
,,,,,,,,,,eum191,03-09-2023_19h59.33.923,spanish_exp2,2022.1.4,Win32,59.22767117,,,space,5.4493,0,8,8,0,1,target,penultimate,"""No me gusta el té de manzanilla"" —abomino con certeza.",abominar,1,,,,,,,,,,,,,,,,,,,,,,,
,,,,,,,,,,eum191,03-09-2023_19h59.33.923,spanish_exp2,2022.1.4,Win32,59.22767117,,,space,5.622,0,9,9,12,1,target,penultimate,"""No habrá más cucarachas"" —extermino complacida.",exterminar,1,,,,,,,,,,,,,,,,,,,,,,,
,,,,,,,,,,eum191,03-09-2023_19h59.33.923,spanish_exp2,2022.1.4,Win32,59.22767117,,,space,5.8887,0,10,10,9,1,target,ultimate,"""No puedo cocinar sin quemar la comida"" —me desanimó compungida.",desanimar,1,,,,,,,,,,,,,,,,,,,,,,,
,,,,,,,,,,eum191,03-09-2023_19h59.33.923,spanish_exp2,2022.1.4,Win32,59.22767117,,,space,7.0259,0,11,11,2,1,target,penultimate,"""Este no es mi número de teléfono"" —la descamino complacido.",descaminar,1,,,,,,,,,,,,,,,,,,,,,,,
,,,,,,,,,,eum191,03-09-2023_19h59.33.923,spanish_exp2,2022.1.4,Win32,59.22767117,,,space,5.5804,0,12,12,1,1,target,ultimate,"""Con la lluvia el viento es muy fuerte"" —determinó complacida.",determinar,1,,,,,,,,,,,,,,,,,,,,,,,
,,,,,,,,,,eum191,03-09-2023_19h59.33.923,spanish_exp2,2022.1.4,Win32,59.22767117,,,space,5.2911,0,13,13,8,1,target,penultimate,"""Este tiene menos azúcar"" —discrimino tímida.",discriminar,1,,,,,,,,,,,,,,,,,,,,,,,
,,,,,,,,,,eum191,03-09-2023_19h59.33.923,spanish_exp2,2022.1.4,Win32,59.22767117,,,,,,,,,,,,,,,0,1,1,0,1,main_trial_block1.xlsx,,,,,,,,,,,,,,,,,
,,,,,,,,,,eum191,03-09-2023_19h59.33.923,spanish_exp2,2022.1.4,Win32,59.22767117,,,,,,,,,,,,,,,,,,,,,space,11.4928,1,0,1,0,1,,,,,,,,,,
,,,,,,,,,,eum191,03-09-2023_19h59.33.923,spanish_exp2,2022.1.4,Win32,59.22767117,,,space,4.8692,,,,,,target,ultimate,"""Compré esta lámpara ayer"" —iluminó contenta.",iluminar,1,,,,,,,,,,,,,,0,0,0,5,1,,,,,
,,,,,,,,,,eum191,03-09-2023_19h59.33.923,spanish_exp2,2022.1.4,Win32,59.22767117,,,space,5.3281,,,,,,target,penultimate,"""Confirma la cita para mañana"" —le encamino con ilusión. ",encaminar,1,,,,,,,,,,,,,,0,1,1,6,1,,,,,
,,,,,,,,,,eum191,03-09-2023_19h59.33.923,spanish_exp2,2022.1.4,Win32,59.22767117,,,space,5.3956,,,,,,target,ultimate,"""No puedo cocinar sin quemar la comida"" —me desanimó compungida.",desanimar,1,,,,,,,,,,,,,,0,2,2,9,1,,,,,
,,,,,,,,,,eum191,03-09-2023_19h59.33.923,spanish_exp2,2022.1.4,Win32,59.22767117,,,space,5.2198,,,,,,target,penultimate,"""Escriban la respuesta"" —los examino seriamente.",examinar,1,,,,,,,,,,,,,,0,3,3,4,1,,,,,
,,,,,,,,,,eum191,03-09-2023_19h59.33.923,spanish_exp2,2022.1.4,Win32,59.22767117,,,space,4.9142,,,,,,target,penultimate,"""Este tiene menos azúcar"" —discrimino tímida.",discriminar,1,,,,,,,,,,,,,,0,4,4,8,1,,,,,
,,,,,,,,,,eum191,03-09-2023_19h59.33.923,spanish_exp2,2022.1.4,Win32,59.22767117,,,space,4.9605,,,,,,target,ultimate,"""Entraron sin pedir permiso"" —les incriminó seguro.",incriminar,1,,,,,,,,,,,,,,0,5,5,11,1,,,,,
,,,,,,,,,,eum191,03-09-2023_19h59.33.923,spanish_exp2,2022.1.4,Win32,59.22767117,,,space,4.4933,,,,,,target,penultimate,"""No habrá más cucarachas"" —extermino complacida.",exterminar,1,,,,,,,,,,,,,,0,6,6,12,1,,,,,
,,,,,,,,,,eum191,03-09-2023_19h59.33.923,spanish_exp2,2022.1.4,Win32,59.22767117,,,space,5.4312,,,,,,target,penultimate,"""Este no es mi número de teléfono"" —la descamino complacido.",descaminar,1,,,,,,,,,,,,,,0,7,7,2,1,,,,,
,,,,,,,,,,eum191,03-09-2023_19h59.33.923,spanish_exp2,2022.1.4,Win32,59.22767117,,,space,5.7022,,,,,,target,ultimate,"""El presidente del estado se encuentra enfermo"" —diseminó compungido.",diseminar,1,,,,,,,,,,,,,,0,8,8,3,1,,,,,
,,,,,,,,,,eum191,03-09-2023_19h59.33.923,spanish_exp2,2022.1.4,Win32,59.22767117,,,space,5.1426,,,,,,target,ultimate,"""Con la lluvia el viento es muy fuerte"" —determinó complacida.",determinar,1,,,,,,,,,,,,,,0,9,9,1,1,,,,,
,,,,,,,,,,eum191,03-09-2023_19h59.33.923,spanish_exp2,2022.1.4,Win32,59.22767117,,,space,4.4085,,,,,,target,ultimate,"""Me robaron"" —les recriminó con intensidad.",recriminar,1,,,,,,,,,,,,,,0,10,10,7,1,,,,,
,,,,,,,,,,eum191,03-09-2023_19h59.33.923,spanish_exp2,2022.1.4,Win32,59.22767117,,,space,4.5467,,,,,,target,penultimate,"""No son necesarios"" —los elimino segura.",eliminar,1,,,,,,,,,,,,,,0,11,11,10,1,,,,,
,,,,,,,,,,eum191,03-09-2023_19h59.33.923,spanish_exp2,2022.1.4,Win32,59.22767117,,,space,5.161,,,,,,target,ultimate,"""Retrato de un hombre triste"" —lo denominó complacido. ",denominar,1,,,,,,,,,,,,,,0,12,12,13,1,,,,,
,,,,,,,,,,eum191,03-09-2023_19h59.33.923,spanish_exp2,2022.1.4,Win32,59.22767117,,,space,5.0298,,,,,,target,penultimate,"""No me gusta el té de manzanilla"" —abomino con certeza.",abominar,1,,,,,,,,,,,,,,0,13,13,0,1,,,,,
,,,,,,,,,,eum191,03-09-2023_19h59.33.923,spanish_exp2,2022.1.4,Win32,59.22767117,,,,,,,,,,,,,,,,,,,,main_trial_block1.xlsx,,,,,,,,,,,,,0,0,0,0,1
,,,,,,,,,,eum191,03-09-2023_19h59.33.923,spanish_exp2,2022.1.4,Win32,59.22767117,,,space,4.6753,,,,,,target,ultimate,"""Lee estos artículos"" —le encaminó con ilusión.",encaminar,2,,,,,,,,,,,,,,0,0,0,6,1,,,,,
,,,,,,,,,,eum191,03-09-2023_19h59.33.923,spanish_exp2,2022.1.4,Win32,59.22767117,,,space,4.8866,,,,,,target,penultimate,"""No puedo estudiar matemáticas"" —me desanimo compungida.",desanimar,2,,,,,,,,,,,,,,0,1,1,9,1,,,,,
,,,,,,,,,,eum191,03-09-2023_19h59.33.923,spanish_exp2,2022.1.4,Win32,59.22767117,,,space,4.4091,,,,,,target,penultimate,"""Se llamará beta"" —lo denomino complacido.",denominar,2,,,,,,,,,,,,,,0,2,2,13,1,,,,,
,,,,,,,,,,eum191,03-09-2023_19h59.33.923,spanish_exp2,2022.1.4,Win32,59.22767117,,,space,5.27,,,,,,target,penultimate,"""La directora Pérez renuncia a su cargo"" —disemino compungido.",diseminar,2,,,,,,,,,,,,,,0,3,3,3,1,,,,,
,,,,,,,,,,eum191,03-09-2023_19h59.33.923,spanish_exp2,2022.1.4,Win32,59.22767117,,,space,5.0916,,,,,,target,penultimate,"""La masa del átomo es medible"" —determino complacida.",determinar,2,,,,,,,,,,,,,,0,4,4,1,1,,,,,
,,,,,,,,,,eum191,03-09-2023_19h59.33.923,spanish_exp2,2022.1.4,Win32,59.22767117,,,space,5.0454,,,,,,target,ultimate,"""Este es el camino más corto"" —la descaminó complacido.",descaminar,2,,,,,,,,,,,,,,0,5,5,2,1,,,,,
,,,,,,,,,,eum191,03-09-2023_19h59.33.923,spanish_exp2,2022.1.4,Win32,59.22767117,,,space,4.4767,,,,,,target,ultimate,"""Este es más fuerte"" —discriminó tímida.",discriminar,2,,,,,,,,,,,,,,0,6,6,8,1,,,,,
,,,,,,,,,,eum191,03-09-2023_19h59.33.923,spanish_exp2,2022.1.4,Win32,59.22767117,,,space,6.2473,,,,,,target,penultimate,"""No me gusta su conducta"" —les recrimino con intensidad.",recriminar,2,,,,,,,,,,,,,,0,7,7,7,1,,,,,
,,,,,,,,,,eum191,03-09-2023_19h59.33.923,spanish_exp2,2022.1.4,Win32,59.22767117,,,space,4.7464,,,,,,target,ultimate,"""No me gustan las corridas"" —abominó con certeza.",abominar,2,,,,,,,,,,,,,,0,8,8,0,1,,,,,
,,,,,,,,,,eum191,03-09-2023_19h59.33.923,spanish_exp2,2022.1.4,Win32,59.22767117,,,space,4.7165,,,,,,target,penultimate,"""Estas son las luces nuevas"" —ilumino contenta.",iluminar,2,,,,,,,,,,,,,,0,9,9,5,1,,,,,
,,,,,,,,,,eum191,03-09-2023_19h59.33.923,spanish_exp2,2022.1.4,Win32,59.22767117,,,space,5.2455,,,,,,target,ultimate,"""Desarrollen esta ecuación"" —los examinó seriamente.",examinar,2,,,,,,,,,,,,,,0,10,10,4,1,,,,,
,,,,,,,,,,eum191,03-09-2023_19h59.33.923,spanish_exp2,2022.1.4,Win32,59.22767117,,,space,4.2321,,,,,,target,ultimate,"""Tarjeta roja"" —los eliminó segura.",eliminar,2,,,,,,,,,,,,,,0,11,11,10,1,,,,,
,,,,,,,,,,eum191,03-09-2023_19h59.33.923,spanish_exp2,2022.1.4,Win32,59.22767117,,,space,4.9947,,,,,,target,ultimate,"""Este insecticida es muy eficaz"" —exterminó complacida.",exterminar,2,,,,,,,,,,,,,,0,12,12,12,1,,,,,
,,,,,,,,,,eum191,03-09-2023_19h59.33.923,spanish_exp2,2022.1.4,Win32,59.22767117,,,space,4.7076,,,,,,target,penultimate,"""Los Osvald, culpables"" —les incrimino seguro.",incriminar,2,,,,,,,,,,,,,,0,13,13,11,1,,,,,
,,,,,,,,,,eum191,03-09-2023_19h59.33.923,spanish_exp2,2022.1.4,Win32,59.22767117,,,,,,,,,,,,,,,,,,,,main_trial_block2.xlsx,,,,,,,,,,,,,0,1,1,1,1
