key_resp.keys,key_resp.rt,key_resp_2.keys,key_resp_2.rt,trials_2.thisRepN,trials_2.thisTrialN,trials_2.thisN,trials_2.thisIndex,trials_2.ran,trialspanish,participant ID,date,expName,psychopyVersion,OS,frameRate,key_resp_3.keys,key_resp_3.rt,key_resp_4.keys,key_resp_4.rt,trials_randomizer.thisRepN,trials_randomizer.thisTrialN,trials_randomizer.thisN,trials_randomizer.thisIndex,trials_randomizer.ran,fillertarget,stress,wordspanish,verbspanish,rand_12,block_randomizer.thisRepN,block_randomizer.thisTrialN,block_randomizer.thisN,block_randomizer.thisIndex,block_randomizer.ran,condsFile,key_resp_5.keys,key_resp_5.rt,mainTrialReps.thisRepN,mainTrialReps.thisTrialN,mainTrialReps.thisN,mainTrialReps.thisIndex,mainTrialReps.ran,trials_randomizer2.thisRepN,trials_randomizer2.thisTrialN,trials_randomizer2.thisN,trials_randomizer2.thisIndex,trials_randomizer2.ran,block_randomizer2.thisRepN,block_randomizer2.thisTrialN,block_randomizer2.thisN,block_randomizer2.thisIndex,block_randomizer2.ran
space,2097.0763,space,6.5208,0,0,0,3,1,"""Te quiero mucho"" —suspiró contenta Teresa.",irm067,02-24-2023_20h15.32.274,spanish_exp2,2022.1.4,Win32,59.96282305,,,,,,,,,,,,,,,,,,,,,,,,,,,,,,,,,,,,,
,,space,4.3873,0,1,1,2,1,"""Me gustaría un café"" —pienso complacido.",irm067,02-24-2023_20h15.32.274,spanish_exp2,2022.1.4,Win32,59.96282305,,,,,,,,,,,,,,,,,,,,,,,,,,,,,,,,,,,,,
,,space,5.6045,0,2,2,1,1,"""Depende del clima"" —respondió claramente.",irm067,02-24-2023_20h15.32.274,spanish_exp2,2022.1.4,Win32,59.96282305,,,,,,,,,,,,,,,,,,,,,,,,,,,,,,,,,,,,,
,,space,5.0072,0,3,3,0,1,"""Le regaló una camiseta a su sobrino"" —digo contento.",irm067,02-24-2023_20h15.32.274,spanish_exp2,2022.1.4,Win32,59.96282305,,,,,,,,,,,,,,,,,,,,,,,,,,,,,,,,,,,,,
,,,,,,,,,,irm067,02-24-2023_20h15.32.274,spanish_exp2,2022.1.4,Win32,59.96282305,space,3.5108,space,6.156,0,0,0,2,1,target,penultimate,"""Este no es mi número de teléfono"" —la descamino complacido.",descaminar,1,,,,,,,,,,,,,,,,,,,,,,,
,,,,,,,,,,irm067,02-24-2023_20h15.32.274,spanish_exp2,2022.1.4,Win32,59.96282305,,,space,5.5763,0,1,1,11,1,target,ultimate,"""Entraron sin pedir permiso"" —les incriminó seguro.",incriminar,1,,,,,,,,,,,,,,,,,,,,,,,
,,,,,,,,,,irm067,02-24-2023_20h15.32.274,spanish_exp2,2022.1.4,Win32,59.96282305,,,space,5.3224,0,2,2,12,1,target,penultimate,"""No habrá más cucarachas"" —extermino complacida.",exterminar,1,,,,,,,,,,,,,,,,,,,,,,,
,,,,,,,,,,irm067,02-24-2023_20h15.32.274,spanish_exp2,2022.1.4,Win32,59.96282305,,,space,4.9452,0,3,3,5,1,target,ultimate,"""Compré esta lámpara ayer"" —iluminó contenta.",iluminar,1,,,,,,,,,,,,,,,,,,,,,,,
,,,,,,,,,,irm067,02-24-2023_20h15.32.274,spanish_exp2,2022.1.4,Win32,59.96282305,,,space,6.4482,0,4,4,3,1,target,ultimate,"""El presidente del estado se encuentra enfermo"" —diseminó compungido.",diseminar,1,,,,,,,,,,,,,,,,,,,,,,,
,,,,,,,,,,irm067,02-24-2023_20h15.32.274,spanish_exp2,2022.1.4,Win32,59.96282305,,,space,7.5033,0,5,5,9,1,target,ultimate,"""No puedo cocinar sin quemar la comida"" —me desanimó compungida.",desanimar,1,,,,,,,,,,,,,,,,,,,,,,,
,,,,,,,,,,irm067,02-24-2023_20h15.32.274,spanish_exp2,2022.1.4,Win32,59.96282305,,,space,5.9205,0,6,6,4,1,target,penultimate,"""Escriban la respuesta"" —los examino seriosamente.",examinar,1,,,,,,,,,,,,,,,,,,,,,,,
,,,,,,,,,,irm067,02-24-2023_20h15.32.274,spanish_exp2,2022.1.4,Win32,59.96282305,,,space,5.2357,0,7,7,6,1,target,penultimate,"""Confirma la cita para mañana"" —le encamino con ilusión. ",encaminar,1,,,,,,,,,,,,,,,,,,,,,,,
,,,,,,,,,,irm067,02-24-2023_20h15.32.274,spanish_exp2,2022.1.4,Win32,59.96282305,,,space,4.6724,0,8,8,10,1,target,penultimate,"""No son necesarios"" —los elimino segura.",eliminar,1,,,,,,,,,,,,,,,,,,,,,,,
,,,,,,,,,,irm067,02-24-2023_20h15.32.274,spanish_exp2,2022.1.4,Win32,59.96282305,,,space,4.7411,0,9,9,8,1,target,penultimate,"""Este tiene menos azúcar"" —discrimino tímida.",discriminar,1,,,,,,,,,,,,,,,,,,,,,,,
,,,,,,,,,,irm067,02-24-2023_20h15.32.274,spanish_exp2,2022.1.4,Win32,59.96282305,,,space,4.6099,0,10,10,7,1,target,ultimate,"""Me robaron"" —les recriminó con intensidad.",recriminar,1,,,,,,,,,,,,,,,,,,,,,,,
,,,,,,,,,,irm067,02-24-2023_20h15.32.274,spanish_exp2,2022.1.4,Win32,59.96282305,,,space,5.252,0,11,11,1,1,target,ultimate,"""Con la lluvia el viento es muy fuerte"" —determinó complacida.",determinar,1,,,,,,,,,,,,,,,,,,,,,,,
,,,,,,,,,,irm067,02-24-2023_20h15.32.274,spanish_exp2,2022.1.4,Win32,59.96282305,,,space,5.0113,0,12,12,13,1,target,ultimate,"""Retrato de un hombre triste"" —lo denominó complacido. ",denominar,1,,,,,,,,,,,,,,,,,,,,,,,
,,,,,,,,,,irm067,02-24-2023_20h15.32.274,spanish_exp2,2022.1.4,Win32,59.96282305,,,space,5.5078,0,13,13,0,1,target,penultimate,"""No me gusta el té de manzanilla"" —abomino con certeza.",abominar,1,,,,,,,,,,,,,,,,,,,,,,,
,,,,,,,,,,irm067,02-24-2023_20h15.32.274,spanish_exp2,2022.1.4,Win32,59.96282305,,,,,,,,,,,,,,,0,0,0,0,1,main_trial_block1.xlsx,,,,,,,,,,,,,,,,,
,,,,,,,,,,irm067,02-24-2023_20h15.32.274,spanish_exp2,2022.1.4,Win32,59.96282305,,,space,4.8733,0,0,0,8,1,target,ultimate,"""Este es más fuerte"" —discriminó tímida.",discriminar,2,,,,,,,,,,,,,,,,,,,,,,,
,,,,,,,,,,irm067,02-24-2023_20h15.32.274,spanish_exp2,2022.1.4,Win32,59.96282305,,,space,5.545,0,1,1,2,1,target,ultimate,"""Este es el camino más corto"" —la descaminó complacido.",descaminar,2,,,,,,,,,,,,,,,,,,,,,,,
,,,,,,,,,,irm067,02-24-2023_20h15.32.274,spanish_exp2,2022.1.4,Win32,59.96282305,,,space,5.1383,0,2,2,7,1,target,penultimate,"""No me gusta su conducta"" —les recrimino con intensidad.",recriminar,2,,,,,,,,,,,,,,,,,,,,,,,
,,,,,,,,,,irm067,02-24-2023_20h15.32.274,spanish_exp2,2022.1.4,Win32,59.96282305,,,space,4.0578,0,3,3,10,1,target,ultimate,"""Tarjeta roja"" —los eliminó segura.",eliminar,2,,,,,,,,,,,,,,,,,,,,,,,
,,,,,,,,,,irm067,02-24-2023_20h15.32.274,spanish_exp2,2022.1.4,Win32,59.96282305,,,space,5.3069,0,4,4,5,1,target,penultimate,"""Estas son las luces nuevas"" —ilumino contenta.",iluminar,2,,,,,,,,,,,,,,,,,,,,,,,
,,,,,,,,,,irm067,02-24-2023_20h15.32.274,spanish_exp2,2022.1.4,Win32,59.96282305,,,space,6.0838,0,5,5,3,1,target,penultimate,"""La directora Pérez renuncia a su cargo"" —disemino compungido.",diseminar,2,,,,,,,,,,,,,,,,,,,,,,,
,,,,,,,,,,irm067,02-24-2023_20h15.32.274,spanish_exp2,2022.1.4,Win32,59.96282305,,,space,5.3616,0,6,6,6,1,target,ultimate,"""Lee estos artículos"" —le encaminó con ilusión.",encaminar,2,,,,,,,,,,,,,,,,,,,,,,,
,,,,,,,,,,irm067,02-24-2023_20h15.32.274,spanish_exp2,2022.1.4,Win32,59.96282305,,,space,5.2154,0,7,7,13,1,target,penultimate,"""Se llamará beta"" —lo denomino complacido.",denominar,2,,,,,,,,,,,,,,,,,,,,,,,
,,,,,,,,,,irm067,02-24-2023_20h15.32.274,spanish_exp2,2022.1.4,Win32,59.96282305,,,space,5.7886,0,8,8,9,1,target,penultimate,"""No puedo estudiar matemáticas"" —me desanimo compungida.",desanimar,2,,,,,,,,,,,,,,,,,,,,,,,
,,,,,,,,,,irm067,02-24-2023_20h15.32.274,spanish_exp2,2022.1.4,Win32,59.96282305,,,space,5.8933,0,9,9,4,1,target,ultimate,"""Desarrollen esta ecuación"" —los examinó seriosamente.",examinar,2,,,,,,,,,,,,,,,,,,,,,,,
,,,,,,,,,,irm067,02-24-2023_20h15.32.274,spanish_exp2,2022.1.4,Win32,59.96282305,,,space,5.9172,0,10,10,1,1,target,penultimate,"""La masa del átomo es medible"" —determino complacida.",determinar,2,,,,,,,,,,,,,,,,,,,,,,,
,,,,,,,,,,irm067,02-24-2023_20h15.32.274,spanish_exp2,2022.1.4,Win32,59.96282305,,,space,5.4923,0,11,11,12,1,target,ultimate,"""Este insecticida es muy eficaz"" —exterminó complacida.",exterminar,2,,,,,,,,,,,,,,,,,,,,,,,
,,,,,,,,,,irm067,02-24-2023_20h15.32.274,spanish_exp2,2022.1.4,Win32,59.96282305,,,space,4.997,0,12,12,0,1,target,ultimate,"""No me gustan las corridas"" —abominó con certeza.",abominar,2,,,,,,,,,,,,,,,,,,,,,,,
,,,,,,,,,,irm067,02-24-2023_20h15.32.274,spanish_exp2,2022.1.4,Win32,59.96282305,,,space,5.4127,0,13,13,11,1,target,penultimate,"""Los Osvald, culpables"" —les incrimino seguro.",incriminar,2,,,,,,,,,,,,,,,,,,,,,,,
,,,,,,,,,,irm067,02-24-2023_20h15.32.274,spanish_exp2,2022.1.4,Win32,59.96282305,,,,,,,,,,,,,,,0,1,1,1,1,main_trial_block2.xlsx,,,,,,,,,,,,,,,,,
,,,,,,,,,,irm067,02-24-2023_20h15.32.274,spanish_exp2,2022.1.4,Win32,59.96282305,,,,,,,,,,,,,,,,,,,,,space,13.1658,0,0,0,0,1,,,,,,,,,,
,,,,,,,,,,irm067,02-24-2023_20h15.32.274,spanish_exp2,2022.1.4,Win32,59.96282305,,,space,5.7181,0,0,0,12,1,target,penultimate,"""No habrá más cucarachas"" —extermino complacida.",exterminar,1,,,,,,,,,,,,,,,,,,,,,,,
,,,,,,,,,,irm067,02-24-2023_20h15.32.274,spanish_exp2,2022.1.4,Win32,59.96282305,,,space,5.5044,0,1,1,11,1,target,ultimate,"""Entraron sin pedir permiso"" —les incriminó seguro.",incriminar,1,,,,,,,,,,,,,,,,,,,,,,,
,,,,,,,,,,irm067,02-24-2023_20h15.32.274,spanish_exp2,2022.1.4,Win32,59.96282305,,,space,4.8558,0,2,2,5,1,target,ultimate,"""Compré esta lámpara ayer"" —iluminó contenta.",iluminar,1,,,,,,,,,,,,,,,,,,,,,,,
,,,,,,,,,,irm067,02-24-2023_20h15.32.274,spanish_exp2,2022.1.4,Win32,59.96282305,,,space,5.848,0,3,3,13,1,target,ultimate,"""Retrato de un hombre triste"" —lo denominó complacido. ",denominar,1,,,,,,,,,,,,,,,,,,,,,,,
,,,,,,,,,,irm067,02-24-2023_20h15.32.274,spanish_exp2,2022.1.4,Win32,59.96282305,,,space,5.7554,0,4,4,9,1,target,ultimate,"""No puedo cocinar sin quemar la comida"" —me desanimó compungida.",desanimar,1,,,,,,,,,,,,,,,,,,,,,,,
,,,,,,,,,,irm067,02-24-2023_20h15.32.274,spanish_exp2,2022.1.4,Win32,59.96282305,,,space,6.0027,0,5,5,2,1,target,penultimate,"""Este no es mi número de teléfono"" —la descamino complacido.",descaminar,1,,,,,,,,,,,,,,,,,,,,,,,
,,,,,,,,,,irm067,02-24-2023_20h15.32.274,spanish_exp2,2022.1.4,Win32,59.96282305,,,space,4.831,0,6,6,7,1,target,ultimate,"""Me robaron"" —les recriminó con intensidad.",recriminar,1,,,,,,,,,,,,,,,,,,,,,,,
,,,,,,,,,,irm067,02-24-2023_20h15.32.274,spanish_exp2,2022.1.4,Win32,59.96282305,,,space,6.1365,0,7,7,3,1,target,ultimate,"""El presidente del estado se encuentra enfermo"" —diseminó compungido.",diseminar,1,,,,,,,,,,,,,,,,,,,,,,,
,,,,,,,,,,irm067,02-24-2023_20h15.32.274,spanish_exp2,2022.1.4,Win32,59.96282305,,,space,5.5894,0,8,8,6,1,target,penultimate,"""Confirma la cita para mañana"" —le encamino con ilusión. ",encaminar,1,,,,,,,,,,,,,,,,,,,,,,,
,,,,,,,,,,irm067,02-24-2023_20h15.32.274,spanish_exp2,2022.1.4,Win32,59.96282305,,,space,5.6749,0,9,9,1,1,target,ultimate,"""Con la lluvia el viento es muy fuerte"" —determinó complacida.",determinar,1,,,,,,,,,,,,,,,,,,,,,,,
,,,,,,,,,,irm067,02-24-2023_20h15.32.274,spanish_exp2,2022.1.4,Win32,59.96282305,,,space,5.7846,0,10,10,10,1,target,penultimate,"""No son necesarios"" —los elimino segura.",eliminar,1,,,,,,,,,,,,,,,,,,,,,,,
,,,,,,,,,,irm067,02-24-2023_20h15.32.274,spanish_exp2,2022.1.4,Win32,59.96282305,,,space,5.2961,0,11,11,8,1,target,penultimate,"""Este tiene menos azúcar"" —discrimino tímida.",discriminar,1,,,,,,,,,,,,,,,,,,,,,,,
,,,,,,,,,,irm067,02-24-2023_20h15.32.274,spanish_exp2,2022.1.4,Win32,59.96282305,,,space,5.261,0,12,12,0,1,target,penultimate,"""No me gusta el té de manzanilla"" —abomino con certeza.",abominar,1,,,,,,,,,,,,,,,,,,,,,,,
,,,,,,,,,,irm067,02-24-2023_20h15.32.274,spanish_exp2,2022.1.4,Win32,59.96282305,,,space,5.2073,0,13,13,4,1,target,penultimate,"""Escriban la respuesta"" —los examino seriosamente.",examinar,1,,,,,,,,,,,,,,,,,,,,,,,
,,,,,,,,,,irm067,02-24-2023_20h15.32.274,spanish_exp2,2022.1.4,Win32,59.96282305,,,,,,,,,,,,,,,0,0,0,0,1,main_trial_block1.xlsx,,,,,,,,,,,,,,,,,
,,,,,,,,,,irm067,02-24-2023_20h15.32.274,spanish_exp2,2022.1.4,Win32,59.96282305,,,space,4.9661,0,0,0,13,1,target,penultimate,"""Se llamará beta"" —lo denomino complacido.",denominar,2,,,,,,,,,,,,,,,,,,,,,,,
,,,,,,,,,,irm067,02-24-2023_20h15.32.274,spanish_exp2,2022.1.4,Win32,59.96282305,,,space,5.2112,0,1,1,1,1,target,penultimate,"""La masa del átomo es medible"" —determino complacida.",determinar,2,,,,,,,,,,,,,,,,,,,,,,,
,,,,,,,,,,irm067,02-24-2023_20h15.32.274,spanish_exp2,2022.1.4,Win32,59.96282305,,,space,5.4971,0,2,2,3,1,target,penultimate,"""La directora Pérez renuncia a su cargo"" —disemino compungido.",diseminar,2,,,,,,,,,,,,,,,,,,,,,,,
,,,,,,,,,,irm067,02-24-2023_20h15.32.274,spanish_exp2,2022.1.4,Win32,59.96282305,,,space,5.2878,0,3,3,11,1,target,penultimate,"""Los Osvald, culpables"" —les incrimino seguro.",incriminar,2,,,,,,,,,,,,,,,,,,,,,,,
,,,,,,,,,,irm067,02-24-2023_20h15.32.274,spanish_exp2,2022.1.4,Win32,59.96282305,,,space,5.3266,0,4,4,6,1,target,ultimate,"""Lee estos artículos"" —le encaminó con ilusión.",encaminar,2,,,,,,,,,,,,,,,,,,,,,,,
,,,,,,,,,,irm067,02-24-2023_20h15.32.274,spanish_exp2,2022.1.4,Win32,59.96282305,,,space,5.4943,0,5,5,5,1,target,penultimate,"""Estas son las luces nuevas"" —ilumino contenta.",iluminar,2,,,,,,,,,,,,,,,,,,,,,,,
,,,,,,,,,,irm067,02-24-2023_20h15.32.274,spanish_exp2,2022.1.4,Win32,59.96282305,,,space,5.7182,0,6,6,9,1,target,penultimate,"""No puedo estudiar matemáticas"" —me desanimo compungida.",desanimar,2,,,,,,,,,,,,,,,,,,,,,,,
,,,,,,,,,,irm067,02-24-2023_20h15.32.274,spanish_exp2,2022.1.4,Win32,59.96282305,,,space,4.5664,0,7,7,10,1,target,ultimate,"""Tarjeta roja"" —los eliminó segura.",eliminar,2,,,,,,,,,,,,,,,,,,,,,,,
,,,,,,,,,,irm067,02-24-2023_20h15.32.274,spanish_exp2,2022.1.4,Win32,59.96282305,,,space,5.5812,0,8,8,12,1,target,ultimate,"""Este insecticida es muy eficaz"" —exterminó complacida.",exterminar,2,,,,,,,,,,,,,,,,,,,,,,,
,,,,,,,,,,irm067,02-24-2023_20h15.32.274,spanish_exp2,2022.1.4,Win32,59.96282305,,,space,3.9696,0,9,9,8,1,target,ultimate,"""Este es más fuerte"" —discriminó tímida.",discriminar,2,,,,,,,,,,,,,,,,,,,,,,,
,,,,,,,,,,irm067,02-24-2023_20h15.32.274,spanish_exp2,2022.1.4,Win32,59.96282305,,,space,7.2195,0,10,10,2,1,target,ultimate,"""Este es el camino más corto"" —la descaminó complacido.",descaminar,2,,,,,,,,,,,,,,,,,,,,,,,
,,,,,,,,,,irm067,02-24-2023_20h15.32.274,spanish_exp2,2022.1.4,Win32,59.96282305,,,space,5.0072,0,11,11,0,1,target,ultimate,"""No me gustan las corridas"" —abominó con certeza.",abominar,2,,,,,,,,,,,,,,,,,,,,,,,
,,,,,,,,,,irm067,02-24-2023_20h15.32.274,spanish_exp2,2022.1.4,Win32,59.96282305,,,space,5.2881,0,12,12,7,1,target,penultimate,"""No me gusta su conducta"" —les recrimino con intensidad.",recriminar,2,,,,,,,,,,,,,,,,,,,,,,,
,,,,,,,,,,irm067,02-24-2023_20h15.32.274,spanish_exp2,2022.1.4,Win32,59.96282305,,,space,5.2742,0,13,13,4,1,target,ultimate,"""Desarrollen esta ecuación"" —los examinó seriosamente.",examinar,2,,,,,,,,,,,,,,,,,,,,,,,
,,,,,,,,,,irm067,02-24-2023_20h15.32.274,spanish_exp2,2022.1.4,Win32,59.96282305,,,,,,,,,,,,,,,0,1,1,1,1,main_trial_block2.xlsx,,,,,,,,,,,,,,,,,
,,,,,,,,,,irm067,02-24-2023_20h15.32.274,spanish_exp2,2022.1.4,Win32,59.96282305,,,,,,,,,,,,,,,,,,,,,space,17.0865,1,0,1,0,1,,,,,,,,,,
,,,,,,,,,,irm067,02-24-2023_20h15.32.274,spanish_exp2,2022.1.4,Win32,59.96282305,,,space,5.8981,,,,,,target,penultimate,"""No son necesarios"" —los elimino segura.",eliminar,1,,,,,,,,,,,,,,0,0,0,10,1,,,,,
,,,,,,,,,,irm067,02-24-2023_20h15.32.274,spanish_exp2,2022.1.4,Win32,59.96282305,,,space,7.4896,,,,,,target,ultimate,"""Entraron sin pedir permiso"" —les incriminó seguro.",incriminar,1,,,,,,,,,,,,,,0,1,1,11,1,,,,,
,,,,,,,,,,irm067,02-24-2023_20h15.32.274,spanish_exp2,2022.1.4,Win32,59.96282305,,,space,5.3575,,,,,,target,ultimate,"""Con la lluvia el viento es muy fuerte"" —determinó complacida.",determinar,1,,,,,,,,,,,,,,0,2,2,1,1,,,,,
,,,,,,,,,,irm067,02-24-2023_20h15.32.274,spanish_exp2,2022.1.4,Win32,59.96282305,,,space,4.9758,,,,,,target,penultimate,"""No me gusta el té de manzanilla"" —abomino con certeza.",abominar,1,,,,,,,,,,,,,,0,3,3,0,1,,,,,
,,,,,,,,,,irm067,02-24-2023_20h15.32.274,spanish_exp2,2022.1.4,Win32,59.96282305,,,space,4.7393,,,,,,target,ultimate,"""Me robaron"" —les recriminó con intensidad.",recriminar,1,,,,,,,,,,,,,,0,4,4,7,1,,,,,
,,,,,,,,,,irm067,02-24-2023_20h15.32.274,spanish_exp2,2022.1.4,Win32,59.96282305,,,space,5.0406,,,,,,target,penultimate,"""No habrá más cucarachas"" —extermino complacida.",exterminar,1,,,,,,,,,,,,,,0,5,5,12,1,,,,,
,,,,,,,,,,irm067,02-24-2023_20h15.32.274,spanish_exp2,2022.1.4,Win32,59.96282305,,,space,4.6401,,,,,,target,penultimate,"""Este tiene menos azúcar"" —discrimino tímida.",discriminar,1,,,,,,,,,,,,,,0,6,6,8,1,,,,,
,,,,,,,,,,irm067,02-24-2023_20h15.32.274,spanish_exp2,2022.1.4,Win32,59.96282305,,,space,5.6622,,,,,,target,ultimate,"""Retrato de un hombre triste"" —lo denominó complacido. ",denominar,1,,,,,,,,,,,,,,0,7,7,13,1,,,,,
,,,,,,,,,,irm067,02-24-2023_20h15.32.274,spanish_exp2,2022.1.4,Win32,59.96282305,,,space,5.4134,,,,,,target,ultimate,"""El presidente del estado se encuentra enfermo"" —diseminó compungido.",diseminar,1,,,,,,,,,,,,,,0,8,8,3,1,,,,,
,,,,,,,,,,irm067,02-24-2023_20h15.32.274,spanish_exp2,2022.1.4,Win32,59.96282305,,,space,5.4647,,,,,,target,penultimate,"""Escriban la respuesta"" —los examino seriosamente.",examinar,1,,,,,,,,,,,,,,0,9,9,4,1,,,,,
,,,,,,,,,,irm067,02-24-2023_20h15.32.274,spanish_exp2,2022.1.4,Win32,59.96282305,,,space,5.5066,,,,,,target,penultimate,"""Este no es mi número de teléfono"" —la descamino complacido.",descaminar,1,,,,,,,,,,,,,,0,10,10,2,1,,,,,
,,,,,,,,,,irm067,02-24-2023_20h15.32.274,spanish_exp2,2022.1.4,Win32,59.96282305,,,space,4.8622,,,,,,target,ultimate,"""Compré esta lámpara ayer"" —iluminó contenta.",iluminar,1,,,,,,,,,,,,,,0,11,11,5,1,,,,,
,,,,,,,,,,irm067,02-24-2023_20h15.32.274,spanish_exp2,2022.1.4,Win32,59.96282305,,,space,5.5157,,,,,,target,ultimate,"""No puedo cocinar sin quemar la comida"" —me desanimó compungida.",desanimar,1,,,,,,,,,,,,,,0,12,12,9,1,,,,,
,,,,,,,,,,irm067,02-24-2023_20h15.32.274,spanish_exp2,2022.1.4,Win32,59.96282305,,,space,5.6519,,,,,,target,penultimate,"""Confirma la cita para mañana"" —le encamino con ilusión. ",encaminar,1,,,,,,,,,,,,,,0,13,13,6,1,,,,,
,,,,,,,,,,irm067,02-24-2023_20h15.32.274,spanish_exp2,2022.1.4,Win32,59.96282305,,,,,,,,,,,,,,,,,,,,main_trial_block1.xlsx,,,,,,,,,,,,,0,0,0,0,1
,,,,,,,,,,irm067,02-24-2023_20h15.32.274,spanish_exp2,2022.1.4,Win32,59.96282305,,,space,4.9031,,,,,,target,ultimate,"""No me gustan las corridas"" —abominó con certeza.",abominar,2,,,,,,,,,,,,,,0,0,0,0,1,,,,,
,,,,,,,,,,irm067,02-24-2023_20h15.32.274,spanish_exp2,2022.1.4,Win32,59.96282305,,,space,4.937,,,,,,target,ultimate,"""Este es el camino más corto"" —la descaminó complacido.",descaminar,2,,,,,,,,,,,,,,0,1,1,2,1,,,,,
,,,,,,,,,,irm067,02-24-2023_20h15.32.274,spanish_exp2,2022.1.4,Win32,59.96282305,,,space,4.6061,,,,,,target,penultimate,"""Estas son las luces nuevas"" —ilumino contenta.",iluminar,2,,,,,,,,,,,,,,0,2,2,5,1,,,,,
,,,,,,,,,,irm067,02-24-2023_20h15.32.274,spanish_exp2,2022.1.4,Win32,59.96282305,,,space,5.5238,,,,,,target,penultimate,"""Los Osvald, culpables"" —les incrimino seguro.",incriminar,2,,,,,,,,,,,,,,0,3,3,11,1,,,,,
,,,,,,,,,,irm067,02-24-2023_20h15.32.274,spanish_exp2,2022.1.4,Win32,59.96282305,,,space,5.5673,,,,,,target,ultimate,"""Desarrollen esta ecuación"" —los examinó seriosamente.",examinar,2,,,,,,,,,,,,,,0,4,4,4,1,,,,,
,,,,,,,,,,irm067,02-24-2023_20h15.32.274,spanish_exp2,2022.1.4,Win32,59.96282305,,,space,5.522,,,,,,target,ultimate,"""Este insecticida es muy eficaz"" —exterminó complacida.",exterminar,2,,,,,,,,,,,,,,0,5,5,12,1,,,,,
,,,,,,,,,,irm067,02-24-2023_20h15.32.274,spanish_exp2,2022.1.4,Win32,59.96282305,,,space,5.454,,,,,,target,penultimate,"""No me gusta su conducta"" —les recrimino con intensidad.",recriminar,2,,,,,,,,,,,,,,0,6,6,7,1,,,,,
,,,,,,,,,,irm067,02-24-2023_20h15.32.274,spanish_exp2,2022.1.4,Win32,59.96282305,,,space,4.8485,,,,,,target,ultimate,"""Lee estos artículos"" —le encaminó con ilusión.",encaminar,2,,,,,,,,,,,,,,0,7,7,6,1,,,,,
,,,,,,,,,,irm067,02-24-2023_20h15.32.274,spanish_exp2,2022.1.4,Win32,59.96282305,,,space,4.3193,,,,,,target,penultimate,"""Se llamará beta"" —lo denomino complacido.",denominar,2,,,,,,,,,,,,,,0,8,8,13,1,,,,,
,,,,,,,,,,irm067,02-24-2023_20h15.32.274,spanish_exp2,2022.1.4,Win32,59.96282305,,,space,4.6458,,,,,,target,ultimate,"""Este es más fuerte"" —discriminó tímida.",discriminar,2,,,,,,,,,,,,,,0,9,9,8,1,,,,,
,,,,,,,,,,irm067,02-24-2023_20h15.32.274,spanish_exp2,2022.1.4,Win32,59.96282305,,,space,5.4991,,,,,,target,penultimate,"""La directora Pérez renuncia a su cargo"" —disemino compungido.",diseminar,2,,,,,,,,,,,,,,0,10,10,3,1,,,,,
,,,,,,,,,,irm067,02-24-2023_20h15.32.274,spanish_exp2,2022.1.4,Win32,59.96282305,,,space,5.1098,,,,,,target,penultimate,"""La masa del átomo es medible"" —determino complacida.",determinar,2,,,,,,,,,,,,,,0,11,11,1,1,,,,,
,,,,,,,,,,irm067,02-24-2023_20h15.32.274,spanish_exp2,2022.1.4,Win32,59.96282305,,,space,4.3762,,,,,,target,ultimate,"""Tarjeta roja"" —los eliminó segura.",eliminar,2,,,,,,,,,,,,,,0,12,12,10,1,,,,,
,,,,,,,,,,irm067,02-24-2023_20h15.32.274,spanish_exp2,2022.1.4,Win32,59.96282305,,,space,5.586,,,,,,target,penultimate,"""No puedo estudiar matemáticas"" —me desanimo compungida.",desanimar,2,,,,,,,,,,,,,,0,13,13,9,1,,,,,
,,,,,,,,,,irm067,02-24-2023_20h15.32.274,spanish_exp2,2022.1.4,Win32,59.96282305,,,,,,,,,,,,,,,,,,,,main_trial_block2.xlsx,,,,,,,,,,,,,0,1,1,1,1
