key_resp.keys,key_resp.rt,key_resp_2.keys,key_resp_2.rt,trials_2.thisRepN,trials_2.thisTrialN,trials_2.thisN,trials_2.thisIndex,trials_2.ran,trialcatalan,participant ID,date,expName,psychopyVersion,OS,frameRate,key_resp_3.keys,key_resp_3.rt,key_resp_4.keys,key_resp_4.rt,trial_randomizer.thisRepN,trial_randomizer.thisTrialN,trial_randomizer.thisN,trial_randomizer.thisIndex,trial_randomizer.ran,fillertarget,stress,wordcatalan,verbcatalan,rand_12,block_randomizer.thisRepN,block_randomizer.thisTrialN,block_randomizer.thisN,block_randomizer.thisIndex,block_randomizer.ran,condsFile,key_resp_5.keys,key_resp_5.rt,mainTrialRep.thisRepN,mainTrialRep.thisTrialN,mainTrialRep.thisN,mainTrialRep.thisIndex,mainTrialRep.ran,trial_randomizer2.thisRepN,trial_randomizer2.thisTrialN,trial_randomizer2.thisN,trial_randomizer2.thisIndex,trial_randomizer2.ran,block_randomizer2.thisRepN,block_randomizer2.thisTrialN,block_randomizer2.thisN,block_randomizer2.thisIndex,block_randomizer2.ran
space,15.864,space,8.3282,0,0,0,1,1,"""Depèn de la temporada"" —explica seriòs.",,2023-02-11_12h05.56.727,catalan_exp2,2022.1.4,Win32,19.99120387,,,,,,,,,,,,,,,,,,,,,,,,,,,,,,,,,,,,,
,,space,4.807,0,1,1,3,1,"""T'estimo molt"" —va sospirar content.",,2023-02-11_12h05.56.727,catalan_exp2,2022.1.4,Win32,19.99120387,,,,,,,,,,,,,,,,,,,,,,,,,,,,,,,,,,,,,
,,space,5.2867,0,2,2,2,1,"""Voldria una mica de cafè"" —pensa complaguda.",,2023-02-11_12h05.56.727,catalan_exp2,2022.1.4,Win32,19.99120387,,,,,,,,,,,,,,,,,,,,,,,,,,,,,,,,,,,,,
,,space,8.7864,0,3,3,0,1,"""Ha regalat un pastís al seu nebot"" —va pensar confiat.",,2023-02-11_12h05.56.727,catalan_exp2,2022.1.4,Win32,19.99120387,,,,,,,,,,,,,,,,,,,,,,,,,,,,,,,,,,,,,
,,,,,,,,,,,2023-02-11_12h05.56.727,catalan_exp2,2022.1.4,Win32,19.99120387,space,1.2175,space,5.3457,0,0,0,1,1,target,ultimate,"""Amb la pluja el vent és molt fort"" —va determinar complaguda.",determinar,1,,,,,,,,,,,,,,,,,,,,,,,
,,,,,,,,,,,2023-02-11_12h05.56.727,catalan_exp2,2022.1.4,Win32,19.99120387,,,space,11.1557,0,1,1,5,1,target,ultimate,"""Acabo de comprar aquest llum"" —va il·luminar content.",illuminar,1,,,,,,,,,,,,,,,,,,,,,,,
,,,,,,,,,,,2023-02-11_12h05.56.727,catalan_exp2,2022.1.4,Win32,19.99120387,,,space,8.2154,0,2,2,11,1,target,ultimate,"""Van entrar sense demanar permís"" —les va incriminar confiat.",incriminar,1,,,,,,,,,,,,,,,,,,,,,,,
,,,,,,,,,,,2023-02-11_12h05.56.727,catalan_exp2,2022.1.4,Win32,19.99120387,,,space,10.0634,0,3,3,9,1,target,ultimate,"""No puc cuinar sense cremar el menjar"" —es va desanimar seriós.",desanimar,1,,,,,,,,,,,,,,,,,,,,,,,
,,,,,,,,,,,2023-02-11_12h05.56.727,catalan_exp2,2022.1.4,Win32,19.99120387,,,space,8.8745,0,4,4,2,1,target,penultimate,"""Aquest no és el meu número de telèfon"" —la descamina complagut.",descaminar,1,,,,,,,,,,,,,,,,,,,,,,,
,,,,,,,,,,,2023-02-11_12h05.56.727,catalan_exp2,2022.1.4,Win32,19.99120387,,,space,9.5891,0,5,5,0,1,target,penultimate,"""No m'agrada el te de camamilla"" —abomina plena.",abominar,1,,,,,,,,,,,,,,,,,,,,,,,
,,,,,,,,,,,2023-02-11_12h05.56.727,catalan_exp2,2022.1.4,Win32,19.99120387,,,space,6.162,0,6,6,7,1,target,ultimate,"""És culpa teva"" —li va recriminar seriosa.",recriminar,1,,,,,,,,,,,,,,,,,,,,,,,
,,,,,,,,,,,2023-02-11_12h05.56.727,catalan_exp2,2022.1.4,Win32,19.99120387,,,space,7.1908,0,7,7,4,1,target,penultimate,"""Escriguin la resposta"" —els examina clarament.",examinar,1,,,,,,,,,,,,,,,,,,,,,,,
,,,,,,,,,,,2023-02-11_12h05.56.727,catalan_exp2,2022.1.4,Win32,19.99120387,,,space,7.0752,0,8,8,13,1,target,ultimate,"""Retrat d'un home trist"" —va denominar concret.",denominar,1,,,,,,,,,,,,,,,,,,,,,,,
,,,,,,,,,,,2023-02-11_12h05.56.727,catalan_exp2,2022.1.4,Win32,19.99120387,,,space,17.083,0,9,9,3,1,target,ultimate,"""El president de l'estat està malalt"" —va disseminar prematura.",disseminar,1,,,,,,,,,,,,,,,,,,,,,,,
,,,,,,,,,,,2023-02-11_12h05.56.727,catalan_exp2,2022.1.4,Win32,19.99120387,,,space,5.6788,0,10,10,10,1,target,penultimate,"""No són necessaris"" —elimina segura.",eliminar,1,,,,,,,,,,,,,,,,,,,,,,,
,,,,,,,,,,,2023-02-11_12h05.56.727,catalan_exp2,2022.1.4,Win32,19.99120387,,,space,17.8609,0,11,11,6,1,target,penultimate,"""Confirmin la cita per demà"" —les encamina tímida.",encaminar,1,,,,,,,,,,,,,,,,,,,,,,,
,,,,,,,,,,,2023-02-11_12h05.56.727,catalan_exp2,2022.1.4,Win32,19.99120387,,,space,9.9716,0,12,12,12,1,target,penultimate,"""No hi haurà més bestioles"" —extermina complaguda.",exterminar,1,,,,,,,,,,,,,,,,,,,,,,,
,,,,,,,,,,,2023-02-11_12h05.56.727,catalan_exp2,2022.1.4,Win32,19.99120387,,,space,7.2136,0,13,13,8,1,target,penultimate,"""Aquest té menys sucre"" —discrimina tímid.",discriminar,1,,,,,,,,,,,,,,,,,,,,,,,
,,,,,,,,,,,2023-02-11_12h05.56.727,catalan_exp2,2022.1.4,Win32,19.99120387,,,,,,,,,,,,,,,0,0,0,0,1,main_trial_block1.xlsx,,,,,,,,,,,,,,,,,
,,,,,,,,,,,2023-02-11_12h05.56.727,catalan_exp2,2022.1.4,Win32,19.99120387,,,space,9.4836,0,0,0,13,1,target,penultimate,"""Aquest gen es diu beta"" —denomina concret.",denominar,2,,,,,,,,,,,,,,,,,,,,,,,
,,,,,,,,,,,2023-02-11_12h05.56.727,catalan_exp2,2022.1.4,Win32,19.99120387,,,space,9.4514,0,1,1,10,1,target,ultimate,"""Érem a casa a l'hora del crim"" —va eliminar segura.",eliminar,2,,,,,,,,,,,,,,,,,,,,,,,
,,,,,,,,,,,2023-02-11_12h05.56.727,catalan_exp2,2022.1.4,Win32,19.99120387,,,space,6.9504,0,2,2,5,1,target,penultimate,"""Bon Nadal a tots"" —il·lumina content.",illuminar,2,,,,,,,,,,,,,,,,,,,,,,,
,,,,,,,,,,,2023-02-11_12h05.56.727,catalan_exp2,2022.1.4,Win32,19.99120387,,,space,8.6819,0,3,3,3,1,target,penultimate,"""La senyora Martí renuncia al seu càrrec"" —dissemina prematura.",disseminar,2,,,,,,,,,,,,,,,,,,,,,,,
,,,,,,,,,,,2023-02-11_12h05.56.727,catalan_exp2,2022.1.4,Win32,19.99120387,,,space,8.4622,0,4,4,2,1,target,ultimate,"""Aquest és el camí més curt"" —la va descaminar complagut.",descaminar,2,,,,,,,,,,,,,,,,,,,,,,,
,,,,,,,,,,,2023-02-11_12h05.56.727,catalan_exp2,2022.1.4,Win32,19.99120387,,,space,18.1382,0,5,5,4,1,target,ultimate,"""Facin aquesta equació"" —els va examinar clarament.",examinar,2,,,,,,,,,,,,,,,,,,,,,,,
,,,,,,,,,,,2023-02-11_12h05.56.727,catalan_exp2,2022.1.4,Win32,19.99120387,,,space,7.1285,0,6,6,11,1,target,penultimate,"""Vostès són les culpables"" —les incrimina confiat.",incriminar,2,,,,,,,,,,,,,,,,,,,,,,,
,,,,,,,,,,,2023-02-11_12h05.56.727,catalan_exp2,2022.1.4,Win32,19.99120387,,,space,18.0711,0,7,7,0,1,target,ultimate,"""No m'agraden gens les curses de braus"" —va abominar plena.",abominar,2,,,,,,,,,,,,,,,,,,,,,,,
,,,,,,,,,,,2023-02-11_12h05.56.727,catalan_exp2,2022.1.4,Win32,19.99120387,,,space,8.5651,0,8,8,6,1,target,ultimate,"""Llegiu aquests articles"" —les va encaminar tímida.",encaminar,2,,,,,,,,,,,,,,,,,,,,,,,
,,,,,,,,,,,2023-02-11_12h05.56.727,catalan_exp2,2022.1.4,Win32,19.99120387,,,space,8.5022,0,9,9,12,1,target,ultimate,"""Aquest verí va molt bé"" —va exterminar complaguda.",exterminar,2,,,,,,,,,,,,,,,,,,,,,,,
,,,,,,,,,,,2023-02-11_12h05.56.727,catalan_exp2,2022.1.4,Win32,19.99120387,,,space,7.597,0,10,10,8,1,target,ultimate,"""Aquest és més fort"" —va discriminar tímid.",discriminar,2,,,,,,,,,,,,,,,,,,,,,,,
,,,,,,,,,,,2023-02-11_12h05.56.727,catalan_exp2,2022.1.4,Win32,19.99120387,,,space,7.5805,0,11,11,7,1,target,penultimate,"""No m'agrada que em truquis"" —li recrimina seriosa.",recriminar,2,,,,,,,,,,,,,,,,,,,,,,,
,,,,,,,,,,,2023-02-11_12h05.56.727,catalan_exp2,2022.1.4,Win32,19.99120387,,,space,15.5294,0,12,12,1,1,target,penultimate,"""La massa de l'àtom és mesurable"" —determina complaguda.",determinar,2,,,,,,,,,,,,,,,,,,,,,,,
,,,,,,,,,,,2023-02-11_12h05.56.727,catalan_exp2,2022.1.4,Win32,19.99120387,,,space,6.8235,0,13,13,9,1,target,penultimate,"""No passaré mai l'examen"" —es desanima seriós.",desanimar,2,,,,,,,,,,,,,,,,,,,,,,,
,,,,,,,,,,,2023-02-11_12h05.56.727,catalan_exp2,2022.1.4,Win32,19.99120387,,,,,,,,,,,,,,,0,1,1,1,1,main_trial_block2.xlsx,,,,,,,,,,,,,,,,,
,,,,,,,,,,,2023-02-11_12h05.56.727,catalan_exp2,2022.1.4,Win32,19.99120387,,,,,,,,,,,,,,,,,,,,,space,22.6592,0,0,0,0,1,,,,,,,,,,
,,,,,,,,,,,2023-02-11_12h05.56.727,catalan_exp2,2022.1.4,Win32,19.99120387,,,space,6.993,0,0,0,8,1,target,ultimate,"""Aquest és més fort"" —va discriminar tímid.",discriminar,2,,,,,,,,,,,,,,,,,,,,,,,
,,,,,,,,,,,2023-02-11_12h05.56.727,catalan_exp2,2022.1.4,Win32,19.99120387,,,space,8.1121,0,1,1,2,1,target,ultimate,"""Aquest és el camí més curt"" —la va descaminar complagut.",descaminar,2,,,,,,,,,,,,,,,,,,,,,,,
,,,,,,,,,,,2023-02-11_12h05.56.727,catalan_exp2,2022.1.4,Win32,19.99120387,,,space,7.2107,0,2,2,10,1,target,ultimate,"""Érem a casa a l'hora del crim"" —va eliminar segura.",eliminar,2,,,,,,,,,,,,,,,,,,,,,,,
,,,,,,,,,,,2023-02-11_12h05.56.727,catalan_exp2,2022.1.4,Win32,19.99120387,,,space,17.2221,0,3,3,9,1,target,penultimate,"""No passaré mai l'examen"" —es desanima seriós.",desanimar,2,,,,,,,,,,,,,,,,,,,,,,,
,,,,,,,,,,,2023-02-11_12h05.56.727,catalan_exp2,2022.1.4,Win32,19.99120387,,,space,6.4533,0,4,4,13,1,target,penultimate,"""Aquest gen es diu beta"" —denomina concret.",denominar,2,,,,,,,,,,,,,,,,,,,,,,,
,,,,,,,,,,,2023-02-11_12h05.56.727,catalan_exp2,2022.1.4,Win32,19.99120387,,,space,8.8824,0,5,5,0,1,target,ultimate,"""No m'agraden gens les curses de braus"" —va abominar plena.",abominar,2,,,,,,,,,,,,,,,,,,,,,,,
,,,,,,,,,,,2023-02-11_12h05.56.727,catalan_exp2,2022.1.4,Win32,19.99120387,,,space,8.9725,0,6,6,3,1,target,penultimate,"""La senyora Martí renuncia al seu càrrec"" —dissemina prematura.",disseminar,2,,,,,,,,,,,,,,,,,,,,,,,
,,,,,,,,,,,2023-02-11_12h05.56.727,catalan_exp2,2022.1.4,Win32,19.99120387,,,space,7.8752,0,7,7,4,1,target,ultimate,"""Facin aquesta equació"" —els va examinar clarament.",examinar,2,,,,,,,,,,,,,,,,,,,,,,,
,,,,,,,,,,,2023-02-11_12h05.56.727,catalan_exp2,2022.1.4,Win32,19.99120387,,,space,11.7959,0,8,8,1,1,target,penultimate,"""La massa de l'àtom és mesurable"" —determina complaguda.",determinar,2,,,,,,,,,,,,,,,,,,,,,,,
,,,,,,,,,,,2023-02-11_12h05.56.727,catalan_exp2,2022.1.4,Win32,19.99120387,,,space,5.4983,0,9,9,5,1,target,penultimate,"""Bon Nadal a tots"" —il·lumina content.",illuminar,2,,,,,,,,,,,,,,,,,,,,,,,
,,,,,,,,,,,2023-02-11_12h05.56.727,catalan_exp2,2022.1.4,Win32,19.99120387,,,space,9.1476,0,10,10,6,1,target,ultimate,"""Llegiu aquests articles"" —les va encaminar tímida.",encaminar,2,,,,,,,,,,,,,,,,,,,,,,,
,,,,,,,,,,,2023-02-11_12h05.56.727,catalan_exp2,2022.1.4,Win32,19.99120387,,,space,6.9986,0,11,11,11,1,target,penultimate,"""Vostès són les culpables"" —les incrimina confiat.",incriminar,2,,,,,,,,,,,,,,,,,,,,,,,
,,,,,,,,,,,2023-02-11_12h05.56.727,catalan_exp2,2022.1.4,Win32,19.99120387,,,space,7.5536,0,12,12,7,1,target,penultimate,"""No m'agrada que em truquis"" —li recrimina seriosa.",recriminar,2,,,,,,,,,,,,,,,,,,,,,,,
,,,,,,,,,,,2023-02-11_12h05.56.727,catalan_exp2,2022.1.4,Win32,19.99120387,,,space,7.1574,0,13,13,12,1,target,ultimate,"""Aquest verí va molt bé"" —va exterminar complaguda.",exterminar,2,,,,,,,,,,,,,,,,,,,,,,,
,,,,,,,,,,,2023-02-11_12h05.56.727,catalan_exp2,2022.1.4,Win32,19.99120387,,,,,,,,,,,,,,,0,0,0,1,1,main_trial_block2.xlsx,,,,,,,,,,,,,,,,,
,,,,,,,,,,,2023-02-11_12h05.56.727,catalan_exp2,2022.1.4,Win32,19.99120387,,,space,7.4822,0,0,0,0,1,target,penultimate,"""No m'agrada el te de camamilla"" —abomina plena.",abominar,1,,,,,,,,,,,,,,,,,,,,,,,
,,,,,,,,,,,2023-02-11_12h05.56.727,catalan_exp2,2022.1.4,Win32,19.99120387,,,space,6.835,0,1,1,4,1,target,penultimate,"""Escriguin la resposta"" —els examina clarament.",examinar,1,,,,,,,,,,,,,,,,,,,,,,,
,,,,,,,,,,,2023-02-11_12h05.56.727,catalan_exp2,2022.1.4,Win32,19.99120387,,,space,5.6401,0,2,2,7,1,target,ultimate,"""És culpa teva"" —li va recriminar seriosa.",recriminar,1,,,,,,,,,,,,,,,,,,,,,,,
,,,,,,,,,,,2023-02-11_12h05.56.727,catalan_exp2,2022.1.4,Win32,19.99120387,,,space,7.7777,0,3,3,5,1,target,ultimate,"""Acabo de comprar aquest llum"" —va il·luminar content.",illuminar,1,,,,,,,,,,,,,,,,,,,,,,,
,,,,,,,,,,,2023-02-11_12h05.56.727,catalan_exp2,2022.1.4,Win32,19.99120387,,,space,7.3898,0,4,4,8,1,target,penultimate,"""Aquest té menys sucre"" —discrimina tímid.",discriminar,1,,,,,,,,,,,,,,,,,,,,,,,
,,,,,,,,,,,2023-02-11_12h05.56.727,catalan_exp2,2022.1.4,Win32,19.99120387,,,space,5.4134,0,5,5,10,1,target,penultimate,"""No són necessaris"" —elimina segura.",eliminar,1,,,,,,,,,,,,,,,,,,,,,,,
,,,,,,,,,,,2023-02-11_12h05.56.727,catalan_exp2,2022.1.4,Win32,19.99120387,,,space,9.0871,0,6,6,11,1,target,ultimate,"""Van entrar sense demanar permís"" —les va incriminar confiat.",incriminar,1,,,,,,,,,,,,,,,,,,,,,,,
,,,,,,,,,,,2023-02-11_12h05.56.727,catalan_exp2,2022.1.4,Win32,19.99120387,,,space,8.4749,0,7,7,2,1,target,penultimate,"""Aquest no és el meu número de telèfon"" —la descamina complagut.",descaminar,1,,,,,,,,,,,,,,,,,,,,,,,
,,,,,,,,,,,2023-02-11_12h05.56.727,catalan_exp2,2022.1.4,Win32,19.99120387,,,space,6.8848,0,8,8,3,1,target,ultimate,"""El president de l'estat està malalt"" —va disseminar prematura.",disseminar,1,,,,,,,,,,,,,,,,,,,,,,,
,,,,,,,,,,,2023-02-11_12h05.56.727,catalan_exp2,2022.1.4,Win32,19.99120387,,,space,7.3631,0,9,9,1,1,target,ultimate,"""Amb la pluja el vent és molt fort"" —va determinar complaguda.",determinar,1,,,,,,,,,,,,,,,,,,,,,,,
,,,,,,,,,,,2023-02-11_12h05.56.727,catalan_exp2,2022.1.4,Win32,19.99120387,,,space,7.8393,0,10,10,6,1,target,penultimate,"""Confirmin la cita per demà"" —les encamina tímida.",encaminar,1,,,,,,,,,,,,,,,,,,,,,,,
,,,,,,,,,,,2023-02-11_12h05.56.727,catalan_exp2,2022.1.4,Win32,19.99120387,,,space,6.7691,0,11,11,13,1,target,ultimate,"""Retrat d'un home trist"" —va denominar concret.",denominar,1,,,,,,,,,,,,,,,,,,,,,,,
,,,,,,,,,,,2023-02-11_12h05.56.727,catalan_exp2,2022.1.4,Win32,19.99120387,,,space,9.1512,0,12,12,12,1,target,penultimate,"""No hi haurà més bestioles"" —extermina complaguda.",exterminar,1,,,,,,,,,,,,,,,,,,,,,,,
,,,,,,,,,,,2023-02-11_12h05.56.727,catalan_exp2,2022.1.4,Win32,19.99120387,,,space,7.5765,0,13,13,9,1,target,ultimate,"""No puc cuinar sense cremar el menjar"" —es va desanimar seriós.",desanimar,1,,,,,,,,,,,,,,,,,,,,,,,
,,,,,,,,,,,2023-02-11_12h05.56.727,catalan_exp2,2022.1.4,Win32,19.99120387,,,,,,,,,,,,,,,0,1,1,0,1,main_trial_block1.xlsx,,,,,,,,,,,,,,,,,
,,,,,,,,,,,2023-02-11_12h05.56.727,catalan_exp2,2022.1.4,Win32,19.99120387,,,,,,,,,,,,,,,,,,,,,space,11.7234,1,0,1,0,1,,,,,,,,,,
,,,,,,,,,,,2023-02-11_12h05.56.727,catalan_exp2,2022.1.4,Win32,19.99120387,,,space,8.0362,,,,,,target,ultimate,"""Aquest és el camí més curt"" —la va descaminar complagut.",descaminar,2,,,,,,,,,,,,,,0,0,0,2,1,,,,,
,,,,,,,,,,,2023-02-11_12h05.56.727,catalan_exp2,2022.1.4,Win32,19.99120387,,,space,17.1621,,,,,,target,penultimate,"""Vostès són les culpables"" —les incrimina confiat.",incriminar,2,,,,,,,,,,,,,,0,1,1,11,1,,,,,
,,,,,,,,,,,2023-02-11_12h05.56.727,catalan_exp2,2022.1.4,Win32,19.99120387,,,space,7.4265,,,,,,target,ultimate,"""Facin aquesta equació"" —els va examinar clarament.",examinar,2,,,,,,,,,,,,,,0,2,2,4,1,,,,,
,,,,,,,,,,,2023-02-11_12h05.56.727,catalan_exp2,2022.1.4,Win32,19.99120387,,,space,7.9602,,,,,,target,penultimate,"""La senyora Martí renuncia al seu càrrec"" —dissemina prematura.",disseminar,2,,,,,,,,,,,,,,0,3,3,3,1,,,,,
,,,,,,,,,,,2023-02-11_12h05.56.727,catalan_exp2,2022.1.4,Win32,19.99120387,,,space,9.896,,,,,,target,penultimate,"""La massa de l'àtom és mesurable"" —determina complaguda.",determinar,2,,,,,,,,,,,,,,0,4,4,1,1,,,,,
,,,,,,,,,,,2023-02-11_12h05.56.727,catalan_exp2,2022.1.4,Win32,19.99120387,,,space,6.3553,,,,,,target,penultimate,"""Bon Nadal a tots"" —il·lumina content.",illuminar,2,,,,,,,,,,,,,,0,5,5,5,1,,,,,
,,,,,,,,,,,2023-02-11_12h05.56.727,catalan_exp2,2022.1.4,Win32,19.99120387,,,space,7.942,,,,,,target,ultimate,"""Érem a casa a l'hora del crim"" —va eliminar segura.",eliminar,2,,,,,,,,,,,,,,0,6,6,10,1,,,,,
,,,,,,,,,,,2023-02-11_12h05.56.727,catalan_exp2,2022.1.4,Win32,19.99120387,,,space,8.3318,,,,,,target,ultimate,"""Aquest és més fort"" —va discriminar tímid.",discriminar,2,,,,,,,,,,,,,,0,7,7,8,1,,,,,
,,,,,,,,,,,2023-02-11_12h05.56.727,catalan_exp2,2022.1.4,Win32,19.99120387,,,space,6.6443,,,,,,target,penultimate,"""No passaré mai l'examen"" —es desanima seriós.",desanimar,2,,,,,,,,,,,,,,0,8,8,9,1,,,,,
,,,,,,,,,,,2023-02-11_12h05.56.727,catalan_exp2,2022.1.4,Win32,19.99120387,,,space,8.2183,,,,,,target,ultimate,"""Llegiu aquests articles"" —les va encaminar tímida.",encaminar,2,,,,,,,,,,,,,,0,9,9,6,1,,,,,
,,,,,,,,,,,2023-02-11_12h05.56.727,catalan_exp2,2022.1.4,Win32,19.99120387,,,space,8.7267,,,,,,target,ultimate,"""No m'agraden gens les curses de braus"" —va abominar plena.",abominar,2,,,,,,,,,,,,,,0,10,10,0,1,,,,,
,,,,,,,,,,,2023-02-11_12h05.56.727,catalan_exp2,2022.1.4,Win32,19.99120387,,,space,7.7905,,,,,,target,ultimate,"""Aquest verí va molt bé"" —va exterminar complaguda.",exterminar,2,,,,,,,,,,,,,,0,11,11,12,1,,,,,
,,,,,,,,,,,2023-02-11_12h05.56.727,catalan_exp2,2022.1.4,Win32,19.99120387,,,space,7.6778,,,,,,target,penultimate,"""Aquest gen es diu beta"" —denomina concret.",denominar,2,,,,,,,,,,,,,,0,12,12,13,1,,,,,
,,,,,,,,,,,2023-02-11_12h05.56.727,catalan_exp2,2022.1.4,Win32,19.99120387,,,space,6.9413,,,,,,target,penultimate,"""No m'agrada que em truquis"" —li recrimina seriosa.",recriminar,2,,,,,,,,,,,,,,0,13,13,7,1,,,,,
,,,,,,,,,,,2023-02-11_12h05.56.727,catalan_exp2,2022.1.4,Win32,19.99120387,,,,,,,,,,,,,,,,,,,,main_trial_block2.xlsx,,,,,,,,,,,,,0,0,0,1,1
,,,,,,,,,,,2023-02-11_12h05.56.727,catalan_exp2,2022.1.4,Win32,19.99120387,,,space,7.519,,,,,,target,penultimate,"""No hi haurà més bestioles"" —extermina complaguda.",exterminar,1,,,,,,,,,,,,,,0,0,0,12,1,,,,,
,,,,,,,,,,,2023-02-11_12h05.56.727,catalan_exp2,2022.1.4,Win32,19.99120387,,,space,6.8297,,,,,,target,ultimate,"""Retrat d'un home trist"" —va denominar concret.",denominar,1,,,,,,,,,,,,,,0,1,1,13,1,,,,,
,,,,,,,,,,,2023-02-11_12h05.56.727,catalan_exp2,2022.1.4,Win32,19.99120387,,,space,6.9696,,,,,,target,penultimate,"""Confirmin la cita per demà"" —les encamina tímida.",encaminar,1,,,,,,,,,,,,,,0,2,2,6,1,,,,,
,,,,,,,,,,,2023-02-11_12h05.56.727,catalan_exp2,2022.1.4,Win32,19.99120387,,,space,14.7475,,,,,,target,ultimate,"""Amb la pluja el vent és molt fort"" —va determinar complaguda.",determinar,1,,,,,,,,,,,,,,0,3,3,1,1,,,,,
,,,,,,,,,,,2023-02-11_12h05.56.727,catalan_exp2,2022.1.4,Win32,19.99120387,,,space,7.2372,,,,,,target,ultimate,"""El president de l'estat està malalt"" —va disseminar prematura.",disseminar,1,,,,,,,,,,,,,,0,4,4,3,1,,,,,
,,,,,,,,,,,2023-02-11_12h05.56.727,catalan_exp2,2022.1.4,Win32,19.99120387,,,space,6.7288,,,,,,target,ultimate,"""Acabo de comprar aquest llum"" —va il·luminar content.",illuminar,1,,,,,,,,,,,,,,0,5,5,5,1,,,,,
,,,,,,,,,,,2023-02-11_12h05.56.727,catalan_exp2,2022.1.4,Win32,19.99120387,,,space,7.5559,,,,,,target,penultimate,"""No m'agrada el te de camamilla"" —abomina plena.",abominar,1,,,,,,,,,,,,,,0,6,6,0,1,,,,,
,,,,,,,,,,,2023-02-11_12h05.56.727,catalan_exp2,2022.1.4,Win32,19.99120387,,,space,6.5455,,,,,,target,penultimate,"""No són necessaris"" —elimina segura.",eliminar,1,,,,,,,,,,,,,,0,7,7,10,1,,,,,
,,,,,,,,,,,2023-02-11_12h05.56.727,catalan_exp2,2022.1.4,Win32,19.99120387,,,space,8.2596,,,,,,target,penultimate,"""Aquest no és el meu número de telèfon"" —la descamina complagut.",descaminar,1,,,,,,,,,,,,,,0,8,8,2,1,,,,,
,,,,,,,,,,,2023-02-11_12h05.56.727,catalan_exp2,2022.1.4,Win32,19.99120387,,,space,6.2418,,,,,,target,ultimate,"""És culpa teva"" —li va recriminar seriosa.",recriminar,1,,,,,,,,,,,,,,0,9,9,7,1,,,,,
,,,,,,,,,,,2023-02-11_12h05.56.727,catalan_exp2,2022.1.4,Win32,19.99120387,,,space,8.5839,,,,,,target,ultimate,"""Van entrar sense demanar permís"" —les va incriminar confiat.",incriminar,1,,,,,,,,,,,,,,0,10,10,11,1,,,,,
,,,,,,,,,,,2023-02-11_12h05.56.727,catalan_exp2,2022.1.4,Win32,19.99120387,,,space,6.986,,,,,,target,penultimate,"""Escriguin la resposta"" —els examina clarament.",examinar,1,,,,,,,,,,,,,,0,11,11,4,1,,,,,
,,,,,,,,,,,2023-02-11_12h05.56.727,catalan_exp2,2022.1.4,Win32,19.99120387,,,space,8.2161,,,,,,target,ultimate,"""No puc cuinar sense cremar el menjar"" —es va desanimar seriós.",desanimar,1,,,,,,,,,,,,,,0,12,12,9,1,,,,,
,,,,,,,,,,,2023-02-11_12h05.56.727,catalan_exp2,2022.1.4,Win32,19.99120387,,,space,8.4301,,,,,,target,penultimate,"""Aquest té menys sucre"" —discrimina tímid.",discriminar,1,,,,,,,,,,,,,,0,13,13,8,1,,,,,
,,,,,,,,,,,2023-02-11_12h05.56.727,catalan_exp2,2022.1.4,Win32,19.99120387,,,,,,,,,,,,,,,,,,,,main_trial_block1.xlsx,,,,,,,,,,,,,0,1,1,0,1
