key_resp.keys,key_resp.rt,key_resp_2.keys,key_resp_2.rt,trials_2.thisRepN,trials_2.thisTrialN,trials_2.thisN,trials_2.thisIndex,trials_2.ran,trialspanish,participant ID,date,expName,psychopyVersion,OS,frameRate,key_resp_3.keys,key_resp_3.rt,key_resp_4.keys,key_resp_4.rt,trials_randomizer.thisRepN,trials_randomizer.thisTrialN,trials_randomizer.thisN,trials_randomizer.thisIndex,trials_randomizer.ran,fillertarget,stress,wordspanish,verbspanish,rand_12,block_randomizer.thisRepN,block_randomizer.thisTrialN,block_randomizer.thisN,block_randomizer.thisIndex,block_randomizer.ran,condsFile,key_resp_5.keys,key_resp_5.rt,mainTrialReps.thisRepN,mainTrialReps.thisTrialN,mainTrialReps.thisN,mainTrialReps.thisIndex,mainTrialReps.ran,trials_randomizer2.thisRepN,trials_randomizer2.thisTrialN,trials_randomizer2.thisN,trials_randomizer2.thisIndex,trials_randomizer2.ran,block_randomizer2.thisRepN,block_randomizer2.thisTrialN,block_randomizer2.thisN,block_randomizer2.thisIndex,block_randomizer2.ran
space,1782.9772,space,10.4467,0,0,0,3,1,"""Te quiero mucho"" —suspiró contenta Teresa.",lic063,2023-05-01_17h26.33.966,spanish_exp2,2022.1.4,MacIntel,120.0048002,,,,,,,,,,,,,,,,,,,,,,,,,,,,,,,,,,,,,
,,space,7.7854,0,1,1,0,1,"""Le regaló una camiseta a su sobrino"" —digo contento.",lic063,2023-05-01_17h26.33.966,spanish_exp2,2022.1.4,MacIntel,120.0048002,,,,,,,,,,,,,,,,,,,,,,,,,,,,,,,,,,,,,
,,space,6.2059,0,2,2,1,1,"""Depende del clima"" —respondió claramente.",lic063,2023-05-01_17h26.33.966,spanish_exp2,2022.1.4,MacIntel,120.0048002,,,,,,,,,,,,,,,,,,,,,,,,,,,,,,,,,,,,,
,,space,8.165,0,3,3,2,1,"""Me gustaría un café"" —pienso complacido.",lic063,2023-05-01_17h26.33.966,spanish_exp2,2022.1.4,MacIntel,120.0048002,,,,,,,,,,,,,,,,,,,,,,,,,,,,,,,,,,,,,
,,,,,,,,,,lic063,2023-05-01_17h26.33.966,spanish_exp2,2022.1.4,MacIntel,120.0048002,space,10.0923,space,6.5504,0,0,0,5,1,target,ultimate,"""Compré esta lámpara ayer"" —iluminó contenta.",iluminar,1,,,,,,,,,,,,,,,,,,,,,,,
,,,,,,,,,,lic063,2023-05-01_17h26.33.966,spanish_exp2,2022.1.4,MacIntel,120.0048002,,,space,6.986,0,1,1,8,1,target,penultimate,"""Este tiene menos azúcar"" —discrimino tímida.",discriminar,1,,,,,,,,,,,,,,,,,,,,,,,
,,,,,,,,,,lic063,2023-05-01_17h26.33.966,spanish_exp2,2022.1.4,MacIntel,120.0048002,,,space,5.4297,0,2,2,10,1,target,penultimate,"""No son necesarios"" —los elimino segura.",eliminar,1,,,,,,,,,,,,,,,,,,,,,,,
,,,,,,,,,,lic063,2023-05-01_17h26.33.966,spanish_exp2,2022.1.4,MacIntel,120.0048002,,,space,7.5781,0,3,3,3,1,target,ultimate,"""El presidente del estado se encuentra enfermo"" —diseminó compungido.",diseminar,1,,,,,,,,,,,,,,,,,,,,,,,
,,,,,,,,,,lic063,2023-05-01_17h26.33.966,spanish_exp2,2022.1.4,MacIntel,120.0048002,,,space,8.2061,0,4,4,9,1,target,ultimate,"""No puedo cocinar sin quemar la comida"" —me desanimó compungida.",desanimar,1,,,,,,,,,,,,,,,,,,,,,,,
,,,,,,,,,,lic063,2023-05-01_17h26.33.966,spanish_exp2,2022.1.4,MacIntel,120.0048002,,,space,8.301,0,5,5,6,1,target,penultimate,"""Confirma la cita para mañana"" —le encamino con ilusión. ",encaminar,1,,,,,,,,,,,,,,,,,,,,,,,
,,,,,,,,,,lic063,2023-05-01_17h26.33.966,spanish_exp2,2022.1.4,MacIntel,120.0048002,,,space,7.8414,0,6,6,1,1,target,ultimate,"""Con la lluvia el viento es muy fuerte"" —determinó complacida.",determinar,1,,,,,,,,,,,,,,,,,,,,,,,
,,,,,,,,,,lic063,2023-05-01_17h26.33.966,spanish_exp2,2022.1.4,MacIntel,120.0048002,,,space,8.4632,0,7,7,4,1,target,penultimate,"""Escriban la respuesta"" —los examino seriamente.",examinar,1,,,,,,,,,,,,,,,,,,,,,,,
,,,,,,,,,,lic063,2023-05-01_17h26.33.966,spanish_exp2,2022.1.4,MacIntel,120.0048002,,,space,7.2075,0,8,8,2,1,target,penultimate,"""Este no es mi número de teléfono"" —la descamino complacido.",descaminar,1,,,,,,,,,,,,,,,,,,,,,,,
,,,,,,,,,,lic063,2023-05-01_17h26.33.966,spanish_exp2,2022.1.4,MacIntel,120.0048002,,,space,7.538,0,9,9,12,1,target,penultimate,"""No habrá más cucarachas"" —extermino complacida.",exterminar,1,,,,,,,,,,,,,,,,,,,,,,,
,,,,,,,,,,lic063,2023-05-01_17h26.33.966,spanish_exp2,2022.1.4,MacIntel,120.0048002,,,space,7.4538,0,10,10,13,1,target,ultimate,"""Retrato de un hombre triste"" —lo denominó complacido. ",denominar,1,,,,,,,,,,,,,,,,,,,,,,,
,,,,,,,,,,lic063,2023-05-01_17h26.33.966,spanish_exp2,2022.1.4,MacIntel,120.0048002,,,space,6.7433,0,11,11,7,1,target,ultimate,"""Me robaron"" —les recriminó con intensidad.",recriminar,1,,,,,,,,,,,,,,,,,,,,,,,
,,,,,,,,,,lic063,2023-05-01_17h26.33.966,spanish_exp2,2022.1.4,MacIntel,120.0048002,,,space,7.714,0,12,12,0,1,target,penultimate,"""No me gusta el té de manzanilla"" —abomino con certeza.",abominar,1,,,,,,,,,,,,,,,,,,,,,,,
,,,,,,,,,,lic063,2023-05-01_17h26.33.966,spanish_exp2,2022.1.4,MacIntel,120.0048002,,,space,10.0061,0,13,13,11,1,target,ultimate,"""Entraron sin pedir permiso"" —les incriminó seguro.",incriminar,1,,,,,,,,,,,,,,,,,,,,,,,
,,,,,,,,,,lic063,2023-05-01_17h26.33.966,spanish_exp2,2022.1.4,MacIntel,120.0048002,,,,,,,,,,,,,,,0,0,0,0,1,main_trial_block1.xlsx,,,,,,,,,,,,,,,,,
,,,,,,,,,,lic063,2023-05-01_17h26.33.966,spanish_exp2,2022.1.4,MacIntel,120.0048002,,,space,6.8475,0,0,0,5,1,target,penultimate,"""Estas son las luces nuevas"" —ilumino contenta.",iluminar,2,,,,,,,,,,,,,,,,,,,,,,,
,,,,,,,,,,lic063,2023-05-01_17h26.33.966,spanish_exp2,2022.1.4,MacIntel,120.0048002,,,space,12.002,0,1,1,1,1,target,penultimate,"""La masa del átomo es medible"" —determino complacida.",determinar,2,,,,,,,,,,,,,,,,,,,,,,,
,,,,,,,,,,lic063,2023-05-01_17h26.33.966,spanish_exp2,2022.1.4,MacIntel,120.0048002,,,space,9.479,0,2,2,12,1,target,ultimate,"""Este insecticida es muy eficaz"" —exterminó complacida.",exterminar,2,,,,,,,,,,,,,,,,,,,,,,,
,,,,,,,,,,lic063,2023-05-01_17h26.33.966,spanish_exp2,2022.1.4,MacIntel,120.0048002,,,space,5.9982,0,3,3,10,1,target,ultimate,"""Tarjeta roja"" —los eliminó segura.",eliminar,2,,,,,,,,,,,,,,,,,,,,,,,
,,,,,,,,,,lic063,2023-05-01_17h26.33.966,spanish_exp2,2022.1.4,MacIntel,120.0048002,,,space,6.6924,0,4,4,11,1,target,penultimate,"""Los Osvald, culpables"" —les incrimino seguro.",incriminar,2,,,,,,,,,,,,,,,,,,,,,,,
,,,,,,,,,,lic063,2023-05-01_17h26.33.966,spanish_exp2,2022.1.4,MacIntel,120.0048002,,,space,6.4383,0,5,5,7,1,target,penultimate,"""No me gusta su conducta"" —les recrimino con intensidad.",recriminar,2,,,,,,,,,,,,,,,,,,,,,,,
,,,,,,,,,,lic063,2023-05-01_17h26.33.966,spanish_exp2,2022.1.4,MacIntel,120.0048002,,,space,8.2424,0,6,6,2,1,target,ultimate,"""Este es el camino más corto"" —la descaminó complacido.",descaminar,2,,,,,,,,,,,,,,,,,,,,,,,
,,,,,,,,,,lic063,2023-05-01_17h26.33.966,spanish_exp2,2022.1.4,MacIntel,120.0048002,,,space,5.317,0,7,7,8,1,target,ultimate,"""Este es más fuerte"" —discriminó tímida.",discriminar,2,,,,,,,,,,,,,,,,,,,,,,,
,,,,,,,,,,lic063,2023-05-01_17h26.33.966,spanish_exp2,2022.1.4,MacIntel,120.0048002,,,space,8.4448,0,8,8,3,1,target,penultimate,"""La directora Pérez renuncia a su cargo"" —disemino compungido.",diseminar,2,,,,,,,,,,,,,,,,,,,,,,,
,,,,,,,,,,lic063,2023-05-01_17h26.33.966,spanish_exp2,2022.1.4,MacIntel,120.0048002,,,space,7.2422,0,9,9,13,1,target,penultimate,"""Se llamará beta"" —lo denomino complacido.",denominar,2,,,,,,,,,,,,,,,,,,,,,,,
,,,,,,,,,,lic063,2023-05-01_17h26.33.966,spanish_exp2,2022.1.4,MacIntel,120.0048002,,,space,6.7,0,10,10,9,1,target,penultimate,"""No puedo estudiar matemáticas"" —me desanimo compungida.",desanimar,2,,,,,,,,,,,,,,,,,,,,,,,
,,,,,,,,,,lic063,2023-05-01_17h26.33.966,spanish_exp2,2022.1.4,MacIntel,120.0048002,,,space,6.0329,0,11,11,0,1,target,ultimate,"""No me gustan las corridas"" —abominó con certeza.",abominar,2,,,,,,,,,,,,,,,,,,,,,,,
,,,,,,,,,,lic063,2023-05-01_17h26.33.966,spanish_exp2,2022.1.4,MacIntel,120.0048002,,,space,7.0524,0,12,12,4,1,target,ultimate,"""Desarrollen esta ecuación"" —los examinó seriamente.",examinar,2,,,,,,,,,,,,,,,,,,,,,,,
,,,,,,,,,,lic063,2023-05-01_17h26.33.966,spanish_exp2,2022.1.4,MacIntel,120.0048002,,,space,6.7581,0,13,13,6,1,target,ultimate,"""Lee estos artículos"" —le encaminó con ilusión.",encaminar,2,,,,,,,,,,,,,,,,,,,,,,,
,,,,,,,,,,lic063,2023-05-01_17h26.33.966,spanish_exp2,2022.1.4,MacIntel,120.0048002,,,,,,,,,,,,,,,0,1,1,1,1,main_trial_block2.xlsx,,,,,,,,,,,,,,,,,
,,,,,,,,,,lic063,2023-05-01_17h26.33.966,spanish_exp2,2022.1.4,MacIntel,120.0048002,,,,,,,,,,,,,,,,,,,,,space,16.8902,0,0,0,0,1,,,,,,,,,,
,,,,,,,,,,lic063,2023-05-01_17h26.33.966,spanish_exp2,2022.1.4,MacIntel,120.0048002,,,space,6.6872,0,0,0,10,1,target,penultimate,"""No son necesarios"" —los elimino segura.",eliminar,1,,,,,,,,,,,,,,,,,,,,,,,
,,,,,,,,,,lic063,2023-05-01_17h26.33.966,spanish_exp2,2022.1.4,MacIntel,120.0048002,,,space,5.7398,0,1,1,4,1,target,penultimate,"""Escriban la respuesta"" —los examino seriamente.",examinar,1,,,,,,,,,,,,,,,,,,,,,,,
,,,,,,,,,,lic063,2023-05-01_17h26.33.966,spanish_exp2,2022.1.4,MacIntel,120.0048002,,,space,5.5856,0,2,2,12,1,target,penultimate,"""No habrá más cucarachas"" —extermino complacida.",exterminar,1,,,,,,,,,,,,,,,,,,,,,,,
,,,,,,,,,,lic063,2023-05-01_17h26.33.966,spanish_exp2,2022.1.4,MacIntel,120.0048002,,,space,7.0568,0,3,3,11,1,target,ultimate,"""Entraron sin pedir permiso"" —les incriminó seguro.",incriminar,1,,,,,,,,,,,,,,,,,,,,,,,
,,,,,,,,,,lic063,2023-05-01_17h26.33.966,spanish_exp2,2022.1.4,MacIntel,120.0048002,,,space,6.0186,0,4,4,5,1,target,ultimate,"""Compré esta lámpara ayer"" —iluminó contenta.",iluminar,1,,,,,,,,,,,,,,,,,,,,,,,
,,,,,,,,,,lic063,2023-05-01_17h26.33.966,spanish_exp2,2022.1.4,MacIntel,120.0048002,,,space,6.7583,0,5,5,1,1,target,ultimate,"""Con la lluvia el viento es muy fuerte"" —determinó complacida.",determinar,1,,,,,,,,,,,,,,,,,,,,,,,
,,,,,,,,,,lic063,2023-05-01_17h26.33.966,spanish_exp2,2022.1.4,MacIntel,120.0048002,,,space,7.2824,0,6,6,0,1,target,penultimate,"""No me gusta el té de manzanilla"" —abomino con certeza.",abominar,1,,,,,,,,,,,,,,,,,,,,,,,
,,,,,,,,,,lic063,2023-05-01_17h26.33.966,spanish_exp2,2022.1.4,MacIntel,120.0048002,,,space,7.2828,0,7,7,9,1,target,ultimate,"""No puedo cocinar sin quemar la comida"" —me desanimó compungida.",desanimar,1,,,,,,,,,,,,,,,,,,,,,,,
,,,,,,,,,,lic063,2023-05-01_17h26.33.966,spanish_exp2,2022.1.4,MacIntel,120.0048002,,,space,6.5323,0,8,8,2,1,target,penultimate,"""Este no es mi número de teléfono"" —la descamino complacido.",descaminar,1,,,,,,,,,,,,,,,,,,,,,,,
,,,,,,,,,,lic063,2023-05-01_17h26.33.966,spanish_exp2,2022.1.4,MacIntel,120.0048002,,,space,8.4417,0,9,9,13,1,target,ultimate,"""Retrato de un hombre triste"" —lo denominó complacido. ",denominar,1,,,,,,,,,,,,,,,,,,,,,,,
,,,,,,,,,,lic063,2023-05-01_17h26.33.966,spanish_exp2,2022.1.4,MacIntel,120.0048002,,,space,7.0524,0,10,10,3,1,target,ultimate,"""El presidente del estado se encuentra enfermo"" —diseminó compungido.",diseminar,1,,,,,,,,,,,,,,,,,,,,,,,
,,,,,,,,,,lic063,2023-05-01_17h26.33.966,spanish_exp2,2022.1.4,MacIntel,120.0048002,,,space,5.6744,0,11,11,7,1,target,ultimate,"""Me robaron"" —les recriminó con intensidad.",recriminar,1,,,,,,,,,,,,,,,,,,,,,,,
,,,,,,,,,,lic063,2023-05-01_17h26.33.966,spanish_exp2,2022.1.4,MacIntel,120.0048002,,,space,7.0234,0,12,12,6,1,target,penultimate,"""Confirma la cita para mañana"" —le encamino con ilusión. ",encaminar,1,,,,,,,,,,,,,,,,,,,,,,,
,,,,,,,,,,lic063,2023-05-01_17h26.33.966,spanish_exp2,2022.1.4,MacIntel,120.0048002,,,space,5.7398,0,13,13,8,1,target,penultimate,"""Este tiene menos azúcar"" —discrimino tímida.",discriminar,1,,,,,,,,,,,,,,,,,,,,,,,
,,,,,,,,,,lic063,2023-05-01_17h26.33.966,spanish_exp2,2022.1.4,MacIntel,120.0048002,,,,,,,,,,,,,,,0,0,0,0,1,main_trial_block1.xlsx,,,,,,,,,,,,,,,,,
,,,,,,,,,,lic063,2023-05-01_17h26.33.966,spanish_exp2,2022.1.4,MacIntel,120.0048002,,,space,6.9442,0,0,0,4,1,target,ultimate,"""Desarrollen esta ecuación"" —los examinó seriamente.",examinar,2,,,,,,,,,,,,,,,,,,,,,,,
,,,,,,,,,,lic063,2023-05-01_17h26.33.966,spanish_exp2,2022.1.4,MacIntel,120.0048002,,,space,6.337,0,1,1,8,1,target,ultimate,"""Este es más fuerte"" —discriminó tímida.",discriminar,2,,,,,,,,,,,,,,,,,,,,,,,
,,,,,,,,,,lic063,2023-05-01_17h26.33.966,spanish_exp2,2022.1.4,MacIntel,120.0048002,,,space,6.6571,0,2,2,1,1,target,penultimate,"""La masa del átomo es medible"" —determino complacida.",determinar,2,,,,,,,,,,,,,,,,,,,,,,,
,,,,,,,,,,lic063,2023-05-01_17h26.33.966,spanish_exp2,2022.1.4,MacIntel,120.0048002,,,space,6.9336,0,3,3,0,1,target,ultimate,"""No me gustan las corridas"" —abominó con certeza.",abominar,2,,,,,,,,,,,,,,,,,,,,,,,
,,,,,,,,,,lic063,2023-05-01_17h26.33.966,spanish_exp2,2022.1.4,MacIntel,120.0048002,,,space,6.8828,0,4,4,12,1,target,ultimate,"""Este insecticida es muy eficaz"" —exterminó complacida.",exterminar,2,,,,,,,,,,,,,,,,,,,,,,,
,,,,,,,,,,lic063,2023-05-01_17h26.33.966,spanish_exp2,2022.1.4,MacIntel,120.0048002,,,space,6.4257,0,5,5,11,1,target,penultimate,"""Los Osvald, culpables"" —les incrimino seguro.",incriminar,2,,,,,,,,,,,,,,,,,,,,,,,
,,,,,,,,,,lic063,2023-05-01_17h26.33.966,spanish_exp2,2022.1.4,MacIntel,120.0048002,,,space,6.2565,0,6,6,5,1,target,penultimate,"""Estas son las luces nuevas"" —ilumino contenta.",iluminar,2,,,,,,,,,,,,,,,,,,,,,,,
,,,,,,,,,,lic063,2023-05-01_17h26.33.966,spanish_exp2,2022.1.4,MacIntel,120.0048002,,,space,6.012,0,7,7,6,1,target,ultimate,"""Lee estos artículos"" —le encaminó con ilusión.",encaminar,2,,,,,,,,,,,,,,,,,,,,,,,
,,,,,,,,,,lic063,2023-05-01_17h26.33.966,spanish_exp2,2022.1.4,MacIntel,120.0048002,,,space,6.6267,0,8,8,13,1,target,penultimate,"""Se llamará beta"" —lo denomino complacido.",denominar,2,,,,,,,,,,,,,,,,,,,,,,,
,,,,,,,,,,lic063,2023-05-01_17h26.33.966,spanish_exp2,2022.1.4,MacIntel,120.0048002,,,space,7.3077,0,9,9,3,1,target,penultimate,"""La directora Pérez renuncia a su cargo"" —disemino compungido.",diseminar,2,,,,,,,,,,,,,,,,,,,,,,,
,,,,,,,,,,lic063,2023-05-01_17h26.33.966,spanish_exp2,2022.1.4,MacIntel,120.0048002,,,space,5.2577,0,10,10,10,1,target,ultimate,"""Tarjeta roja"" —los eliminó segura.",eliminar,2,,,,,,,,,,,,,,,,,,,,,,,
,,,,,,,,,,lic063,2023-05-01_17h26.33.966,spanish_exp2,2022.1.4,MacIntel,120.0048002,,,space,6.3199,0,11,11,9,1,target,penultimate,"""No puedo estudiar matemáticas"" —me desanimo compungida.",desanimar,2,,,,,,,,,,,,,,,,,,,,,,,
,,,,,,,,,,lic063,2023-05-01_17h26.33.966,spanish_exp2,2022.1.4,MacIntel,120.0048002,,,space,6.1822,0,12,12,7,1,target,penultimate,"""No me gusta su conducta"" —les recrimino con intensidad.",recriminar,2,,,,,,,,,,,,,,,,,,,,,,,
,,,,,,,,,,lic063,2023-05-01_17h26.33.966,spanish_exp2,2022.1.4,MacIntel,120.0048002,,,space,6.5668,0,13,13,2,1,target,ultimate,"""Este es el camino más corto"" —la descaminó complacido.",descaminar,2,,,,,,,,,,,,,,,,,,,,,,,
,,,,,,,,,,lic063,2023-05-01_17h26.33.966,spanish_exp2,2022.1.4,MacIntel,120.0048002,,,,,,,,,,,,,,,0,1,1,1,1,main_trial_block2.xlsx,,,,,,,,,,,,,,,,,
,,,,,,,,,,lic063,2023-05-01_17h26.33.966,spanish_exp2,2022.1.4,MacIntel,120.0048002,,,,,,,,,,,,,,,,,,,,,space,15.6313,1,0,1,0,1,,,,,,,,,,
,,,,,,,,,,lic063,2023-05-01_17h26.33.966,spanish_exp2,2022.1.4,MacIntel,120.0048002,,,space,6.4431,,,,,,target,penultimate,"""Los Osvald, culpables"" —les incrimino seguro.",incriminar,2,,,,,,,,,,,,,,0,0,0,11,1,,,,,
,,,,,,,,,,lic063,2023-05-01_17h26.33.966,spanish_exp2,2022.1.4,MacIntel,120.0048002,,,space,6.2675,,,,,,target,ultimate,"""Este es el camino más corto"" —la descaminó complacido.",descaminar,2,,,,,,,,,,,,,,0,1,1,2,1,,,,,
,,,,,,,,,,lic063,2023-05-01_17h26.33.966,spanish_exp2,2022.1.4,MacIntel,120.0048002,,,space,5.5105,,,,,,target,penultimate,"""Estas son las luces nuevas"" —ilumino contenta.",iluminar,2,,,,,,,,,,,,,,0,2,2,5,1,,,,,
,,,,,,,,,,lic063,2023-05-01_17h26.33.966,spanish_exp2,2022.1.4,MacIntel,120.0048002,,,space,7.3069,,,,,,target,penultimate,"""No me gusta su conducta"" —les recrimino con intensidad.",recriminar,2,,,,,,,,,,,,,,0,3,3,7,1,,,,,
,,,,,,,,,,lic063,2023-05-01_17h26.33.966,spanish_exp2,2022.1.4,MacIntel,120.0048002,,,space,6.432,,,,,,target,penultimate,"""No puedo estudiar matemáticas"" —me desanimo compungida.",desanimar,2,,,,,,,,,,,,,,0,4,4,9,1,,,,,
,,,,,,,,,,lic063,2023-05-01_17h26.33.966,spanish_exp2,2022.1.4,MacIntel,120.0048002,,,space,6.4223,,,,,,target,ultimate,"""Este es más fuerte"" —discriminó tímida.",discriminar,2,,,,,,,,,,,,,,0,5,5,8,1,,,,,
,,,,,,,,,,lic063,2023-05-01_17h26.33.966,spanish_exp2,2022.1.4,MacIntel,120.0048002,,,space,7.2562,,,,,,target,penultimate,"""La masa del átomo es medible"" —determino complacida.",determinar,2,,,,,,,,,,,,,,0,6,6,1,1,,,,,
,,,,,,,,,,lic063,2023-05-01_17h26.33.966,spanish_exp2,2022.1.4,MacIntel,120.0048002,,,space,6.4482,,,,,,target,ultimate,"""Lee estos artículos"" —le encaminó con ilusión.",encaminar,2,,,,,,,,,,,,,,0,7,7,6,1,,,,,
,,,,,,,,,,lic063,2023-05-01_17h26.33.966,spanish_exp2,2022.1.4,MacIntel,120.0048002,,,space,5.3335,,,,,,target,ultimate,"""Tarjeta roja"" —los eliminó segura.",eliminar,2,,,,,,,,,,,,,,0,8,8,10,1,,,,,
,,,,,,,,,,lic063,2023-05-01_17h26.33.966,spanish_exp2,2022.1.4,MacIntel,120.0048002,,,space,8.242,,,,,,target,ultimate,"""Desarrollen esta ecuación"" —los examinó seriamente.",examinar,2,,,,,,,,,,,,,,0,9,9,4,1,,,,,
,,,,,,,,,,lic063,2023-05-01_17h26.33.966,spanish_exp2,2022.1.4,MacIntel,120.0048002,,,space,7.3247,,,,,,target,penultimate,"""La directora Pérez renuncia a su cargo"" —disemino compungido.",diseminar,2,,,,,,,,,,,,,,0,10,10,3,1,,,,,
,,,,,,,,,,lic063,2023-05-01_17h26.33.966,spanish_exp2,2022.1.4,MacIntel,120.0048002,,,space,8.7935,,,,,,target,ultimate,"""Este insecticida es muy eficaz"" —exterminó complacida.",exterminar,2,,,,,,,,,,,,,,0,11,11,12,1,,,,,
,,,,,,,,,,lic063,2023-05-01_17h26.33.966,spanish_exp2,2022.1.4,MacIntel,120.0048002,,,space,6.2524,,,,,,target,ultimate,"""No me gustan las corridas"" —abominó con certeza.",abominar,2,,,,,,,,,,,,,,0,12,12,0,1,,,,,
,,,,,,,,,,lic063,2023-05-01_17h26.33.966,spanish_exp2,2022.1.4,MacIntel,120.0048002,,,space,5.7694,,,,,,target,penultimate,"""Se llamará beta"" —lo denomino complacido.",denominar,2,,,,,,,,,,,,,,0,13,13,13,1,,,,,
,,,,,,,,,,lic063,2023-05-01_17h26.33.966,spanish_exp2,2022.1.4,MacIntel,120.0048002,,,,,,,,,,,,,,,,,,,,main_trial_block2.xlsx,,,,,,,,,,,,,0,0,0,1,1
,,,,,,,,,,lic063,2023-05-01_17h26.33.966,spanish_exp2,2022.1.4,MacIntel,120.0048002,,,space,6.7623,,,,,,target,penultimate,"""Confirma la cita para mañana"" —le encamino con ilusión. ",encaminar,1,,,,,,,,,,,,,,0,0,0,6,1,,,,,
,,,,,,,,,,lic063,2023-05-01_17h26.33.966,spanish_exp2,2022.1.4,MacIntel,120.0048002,,,space,7.1556,,,,,,target,ultimate,"""Retrato de un hombre triste"" —lo denominó complacido. ",denominar,1,,,,,,,,,,,,,,0,1,1,13,1,,,,,
,,,,,,,,,,lic063,2023-05-01_17h26.33.966,spanish_exp2,2022.1.4,MacIntel,120.0048002,,,space,6.7335,,,,,,target,penultimate,"""Este no es mi número de teléfono"" —la descamino complacido.",descaminar,1,,,,,,,,,,,,,,0,2,2,2,1,,,,,
,,,,,,,,,,lic063,2023-05-01_17h26.33.966,spanish_exp2,2022.1.4,MacIntel,120.0048002,,,space,5.9211,,,,,,target,penultimate,"""Este tiene menos azúcar"" —discrimino tímida.",discriminar,1,,,,,,,,,,,,,,0,3,3,8,1,,,,,
,,,,,,,,,,lic063,2023-05-01_17h26.33.966,spanish_exp2,2022.1.4,MacIntel,120.0048002,,,space,9.3844,,,,,,target,penultimate,"""No me gusta el té de manzanilla"" —abomino con certeza.",abominar,1,,,,,,,,,,,,,,0,4,4,0,1,,,,,
,,,,,,,,,,lic063,2023-05-01_17h26.33.966,spanish_exp2,2022.1.4,MacIntel,120.0048002,,,space,7.2194,,,,,,target,ultimate,"""El presidente del estado se encuentra enfermo"" —diseminó compungido.",diseminar,1,,,,,,,,,,,,,,0,5,5,3,1,,,,,
,,,,,,,,,,lic063,2023-05-01_17h26.33.966,spanish_exp2,2022.1.4,MacIntel,120.0048002,,,space,5.1217,,,,,,target,ultimate,"""Me robaron"" —les recriminó con intensidad.",recriminar,1,,,,,,,,,,,,,,0,6,6,7,1,,,,,
,,,,,,,,,,lic063,2023-05-01_17h26.33.966,spanish_exp2,2022.1.4,MacIntel,120.0048002,,,space,5.5414,,,,,,target,penultimate,"""No habrá más cucarachas"" —extermino complacida.",exterminar,1,,,,,,,,,,,,,,0,7,7,12,1,,,,,
,,,,,,,,,,lic063,2023-05-01_17h26.33.966,spanish_exp2,2022.1.4,MacIntel,120.0048002,,,space,7.0436,,,,,,target,ultimate,"""No puedo cocinar sin quemar la comida"" —me desanimó compungida.",desanimar,1,,,,,,,,,,,,,,0,8,8,9,1,,,,,
,,,,,,,,,,lic063,2023-05-01_17h26.33.966,spanish_exp2,2022.1.4,MacIntel,120.0048002,,,space,5.0558,,,,,,target,penultimate,"""No son necesarios"" —los elimino segura.",eliminar,1,,,,,,,,,,,,,,0,9,9,10,1,,,,,
,,,,,,,,,,lic063,2023-05-01_17h26.33.966,spanish_exp2,2022.1.4,MacIntel,120.0048002,,,space,7.6079,,,,,,target,ultimate,"""Entraron sin pedir permiso"" —les incriminó seguro.",incriminar,1,,,,,,,,,,,,,,0,10,10,11,1,,,,,
,,,,,,,,,,lic063,2023-05-01_17h26.33.966,spanish_exp2,2022.1.4,MacIntel,120.0048002,,,space,8.2218,,,,,,target,ultimate,"""Con la lluvia el viento es muy fuerte"" —determinó complacida.",determinar,1,,,,,,,,,,,,,,0,11,11,1,1,,,,,
,,,,,,,,,,lic063,2023-05-01_17h26.33.966,spanish_exp2,2022.1.4,MacIntel,120.0048002,,,space,6.0746,,,,,,target,penultimate,"""Escriban la respuesta"" —los examino seriamente.",examinar,1,,,,,,,,,,,,,,0,12,12,4,1,,,,,
,,,,,,,,,,lic063,2023-05-01_17h26.33.966,spanish_exp2,2022.1.4,MacIntel,120.0048002,,,space,6.1207,,,,,,target,ultimate,"""Compré esta lámpara ayer"" —iluminó contenta.",iluminar,1,,,,,,,,,,,,,,0,13,13,5,1,,,,,
,,,,,,,,,,lic063,2023-05-01_17h26.33.966,spanish_exp2,2022.1.4,MacIntel,120.0048002,,,,,,,,,,,,,,,,,,,,main_trial_block1.xlsx,,,,,,,,,,,,,0,1,1,0,1
