key_resp.keys,key_resp.rt,key_resp_2.keys,key_resp_2.rt,trials_2.thisRepN,trials_2.thisTrialN,trials_2.thisN,trials_2.thisIndex,trials_2.ran,trialcatalan,participant ID,date,expName,psychopyVersion,OS,frameRate,key_resp_3.keys,key_resp_3.rt,key_resp_4.keys,key_resp_4.rt,trial_randomizer.thisRepN,trial_randomizer.thisTrialN,trial_randomizer.thisN,trial_randomizer.thisIndex,trial_randomizer.ran,fillertarget,stress,wordcatalan,verbcatalan,rand_12,block_randomizer.thisRepN,block_randomizer.thisTrialN,block_randomizer.thisN,block_randomizer.thisIndex,block_randomizer.ran,condsFile,key_resp_5.keys,key_resp_5.rt,mainTrialRep.thisRepN,mainTrialRep.thisTrialN,mainTrialRep.thisN,mainTrialRep.thisIndex,mainTrialRep.ran,trial_randomizer2.thisRepN,trial_randomizer2.thisTrialN,trial_randomizer2.thisN,trial_randomizer2.thisIndex,trial_randomizer2.ran,block_randomizer2.thisRepN,block_randomizer2.thisTrialN,block_randomizer2.thisN,block_randomizer2.thisIndex,block_randomizer2.ran
space,1610.1581,space,3.893,0,0,0,3,1,"""T'estimo molt"" —va sospirar content.",lrs017,03-03-2023_16h52.48.790,catalan_exp2,2022.1.4,Win32,59.10165485,,,,,,,,,,,,,,,,,,,,,,,,,,,,,,,,,,,,,
,,space,4.4244,0,1,1,2,1,"""Voldria una mica de cafè"" —pensa complaguda.",lrs017,03-03-2023_16h52.48.790,catalan_exp2,2022.1.4,Win32,59.10165485,,,,,,,,,,,,,,,,,,,,,,,,,,,,,,,,,,,,,
,,space,4.0464,0,2,2,1,1,"""Depèn de la temporada"" —explica seriòs.",lrs017,03-03-2023_16h52.48.790,catalan_exp2,2022.1.4,Win32,59.10165485,,,,,,,,,,,,,,,,,,,,,,,,,,,,,,,,,,,,,
,,space,323.551,0,3,3,0,1,"""Ha regalat un pastís al seu nebot"" —va pensar confiat.",lrs017,03-03-2023_16h52.48.790,catalan_exp2,2022.1.4,Win32,59.10165485,,,,,,,,,,,,,,,,,,,,,,,,,,,,,,,,,,,,,
,,,,,,,,,,lrs017,03-03-2023_16h52.48.790,catalan_exp2,2022.1.4,Win32,59.10165485,space,4.724,space,4.6809,0,0,0,4,1,target,ultimate,"""Facin aquesta equació"" —els va examinar clarament.",examinar,2,,,,,,,,,,,,,,,,,,,,,,,
,,,,,,,,,,lrs017,03-03-2023_16h52.48.790,catalan_exp2,2022.1.4,Win32,59.10165485,,,space,4.7718,0,1,1,9,1,target,penultimate,"""No passaré mai l'examen"" —es desanima seriós.",desanimar,2,,,,,,,,,,,,,,,,,,,,,,,
,,,,,,,,,,lrs017,03-03-2023_16h52.48.790,catalan_exp2,2022.1.4,Win32,59.10165485,,,space,5.0105,0,2,2,6,1,target,ultimate,"""Llegiu aquests articles"" —les va encaminar tímida.",encaminar,2,,,,,,,,,,,,,,,,,,,,,,,
,,,,,,,,,,lrs017,03-03-2023_16h52.48.790,catalan_exp2,2022.1.4,Win32,59.10165485,,,space,4.0516,0,3,3,5,1,target,penultimate,"""Bon Nadal a tots"" —il·lumina content.",illuminar,2,,,,,,,,,,,,,,,,,,,,,,,
,,,,,,,,,,lrs017,03-03-2023_16h52.48.790,catalan_exp2,2022.1.4,Win32,59.10165485,,,space,4.7287,0,4,4,13,1,target,penultimate,"""Aquest gen es diu beta"" —denomina concret.",denominar,2,,,,,,,,,,,,,,,,,,,,,,,
,,,,,,,,,,lrs017,03-03-2023_16h52.48.790,catalan_exp2,2022.1.4,Win32,59.10165485,,,space,5.7724,0,5,5,3,1,target,penultimate,"""La senyora Martí renuncia al seu càrrec"" —dissemina prematura.",disseminar,2,,,,,,,,,,,,,,,,,,,,,,,
,,,,,,,,,,lrs017,03-03-2023_16h52.48.790,catalan_exp2,2022.1.4,Win32,59.10165485,,,space,5.1624,0,6,6,2,1,target,ultimate,"""Aquest és el camí més curt"" —la va descaminar complagut.",descaminar,2,,,,,,,,,,,,,,,,,,,,,,,
,,,,,,,,,,lrs017,03-03-2023_16h52.48.790,catalan_exp2,2022.1.4,Win32,59.10165485,,,space,4.2346,0,7,7,7,1,target,penultimate,"""No m'agrada que em truquis"" —li recrimina seriosa.",recriminar,2,,,,,,,,,,,,,,,,,,,,,,,
,,,,,,,,,,lrs017,03-03-2023_16h52.48.790,catalan_exp2,2022.1.4,Win32,59.10165485,,,space,4.1726,0,8,8,8,1,target,ultimate,"""Aquest és més fort"" —va discriminar tímid.",discriminar,2,,,,,,,,,,,,,,,,,,,,,,,
,,,,,,,,,,lrs017,03-03-2023_16h52.48.790,catalan_exp2,2022.1.4,Win32,59.10165485,,,space,5.3145,0,9,9,1,1,target,penultimate,"""La massa de l'àtom és mesurable"" —determina complaguda.",determinar,2,,,,,,,,,,,,,,,,,,,,,,,
,,,,,,,,,,lrs017,03-03-2023_16h52.48.790,catalan_exp2,2022.1.4,Win32,59.10165485,,,space,4.8972,0,10,10,12,1,target,ultimate,"""Aquest verí va molt bé"" —va exterminar complaguda.",exterminar,2,,,,,,,,,,,,,,,,,,,,,,,
,,,,,,,,,,lrs017,03-03-2023_16h52.48.790,catalan_exp2,2022.1.4,Win32,59.10165485,,,space,5.1211,0,11,11,0,1,target,ultimate,"""No m'agraden gens les curses de braus"" —va abominar plena.",abominar,2,,,,,,,,,,,,,,,,,,,,,,,
,,,,,,,,,,lrs017,03-03-2023_16h52.48.790,catalan_exp2,2022.1.4,Win32,59.10165485,,,space,5.232,0,12,12,11,1,target,penultimate,"""Vostès són les culpables"" —les incrimina confiat.",incriminar,2,,,,,,,,,,,,,,,,,,,,,,,
,,,,,,,,,,lrs017,03-03-2023_16h52.48.790,catalan_exp2,2022.1.4,Win32,59.10165485,,,space,4.4817,0,13,13,10,1,target,ultimate,"""Érem a casa a l'hora del crim"" —va eliminar segura.",eliminar,2,,,,,,,,,,,,,,,,,,,,,,,
,,,,,,,,,,lrs017,03-03-2023_16h52.48.790,catalan_exp2,2022.1.4,Win32,59.10165485,,,,,,,,,,,,,,,0,0,0,1,1,main_trial_block2.xlsx,,,,,,,,,,,,,,,,,
,,,,,,,,,,lrs017,03-03-2023_16h52.48.790,catalan_exp2,2022.1.4,Win32,59.10165485,,,space,5.1172,0,0,0,12,1,target,penultimate,"""No hi haurà més bestioles"" —extermina complaguda.",exterminar,1,,,,,,,,,,,,,,,,,,,,,,,
,,,,,,,,,,lrs017,03-03-2023_16h52.48.790,catalan_exp2,2022.1.4,Win32,59.10165485,,,space,5.5285,0,1,1,1,1,target,ultimate,"""Amb la pluja el vent és molt fort"" —va determinar complaguda.",determinar,1,,,,,,,,,,,,,,,,,,,,,,,
,,,,,,,,,,lrs017,03-03-2023_16h52.48.790,catalan_exp2,2022.1.4,Win32,59.10165485,,,space,4.5527,0,2,2,5,1,target,ultimate,"""Acabo de comprar aquest llum"" —va il·luminar content.",illuminar,1,,,,,,,,,,,,,,,,,,,,,,,
,,,,,,,,,,lrs017,03-03-2023_16h52.48.790,catalan_exp2,2022.1.4,Win32,59.10165485,,,space,5.6902,0,3,3,9,1,target,ultimate,"""No puc cuinar sense cremar el menjar"" —es va desanimar seriós.",desanimar,1,,,,,,,,,,,,,,,,,,,,,,,
,,,,,,,,,,lrs017,03-03-2023_16h52.48.790,catalan_exp2,2022.1.4,Win32,59.10165485,,,space,5.7283,0,4,4,2,1,target,penultimate,"""Aquest no és el meu número de telèfon"" —la descamina complagut.",descaminar,1,,,,,,,,,,,,,,,,,,,,,,,
,,,,,,,,,,lrs017,03-03-2023_16h52.48.790,catalan_exp2,2022.1.4,Win32,59.10165485,,,space,4.438,0,5,5,8,1,target,penultimate,"""Aquest té menys sucre"" —discrimina tímid.",discriminar,1,,,,,,,,,,,,,,,,,,,,,,,
,,,,,,,,,,lrs017,03-03-2023_16h52.48.790,catalan_exp2,2022.1.4,Win32,59.10165485,,,space,4.729,0,6,6,13,1,target,ultimate,"""Retrat d'un home trist"" —va denominar concret.",denominar,1,,,,,,,,,,,,,,,,,,,,,,,
,,,,,,,,,,lrs017,03-03-2023_16h52.48.790,catalan_exp2,2022.1.4,Win32,59.10165485,,,space,5.233,0,7,7,3,1,target,ultimate,"""El president de l'estat està malalt"" —va disseminar prematura.",disseminar,1,,,,,,,,,,,,,,,,,,,,,,,
,,,,,,,,,,lrs017,03-03-2023_16h52.48.790,catalan_exp2,2022.1.4,Win32,59.10165485,,,space,4.5288,0,8,8,4,1,target,penultimate,"""Escriguin la resposta"" —els examina clarament.",examinar,1,,,,,,,,,,,,,,,,,,,,,,,
,,,,,,,,,,lrs017,03-03-2023_16h52.48.790,catalan_exp2,2022.1.4,Win32,59.10165485,,,space,4.0612,0,9,9,0,1,target,penultimate,"""No m'agrada el te de camamilla"" —abomina plena.",abominar,1,,,,,,,,,,,,,,,,,,,,,,,
,,,,,,,,,,lrs017,03-03-2023_16h52.48.790,catalan_exp2,2022.1.4,Win32,59.10165485,,,space,4.0808,0,10,10,7,1,target,ultimate,"""És culpa teva"" —li va recriminar seriosa.",recriminar,1,,,,,,,,,,,,,,,,,,,,,,,
,,,,,,,,,,lrs017,03-03-2023_16h52.48.790,catalan_exp2,2022.1.4,Win32,59.10165485,,,space,5.0048,0,11,11,11,1,target,ultimate,"""Van entrar sense demanar permís"" —les va incriminar confiat.",incriminar,1,,,,,,,,,,,,,,,,,,,,,,,
,,,,,,,,,,lrs017,03-03-2023_16h52.48.790,catalan_exp2,2022.1.4,Win32,59.10165485,,,space,4.5865,0,12,12,6,1,target,penultimate,"""Confirmin la cita per demà"" —les encamina tímida.",encaminar,1,,,,,,,,,,,,,,,,,,,,,,,
,,,,,,,,,,lrs017,03-03-2023_16h52.48.790,catalan_exp2,2022.1.4,Win32,59.10165485,,,space,3.9915,0,13,13,10,1,target,penultimate,"""No són necessaris"" —elimina segura.",eliminar,1,,,,,,,,,,,,,,,,,,,,,,,
,,,,,,,,,,lrs017,03-03-2023_16h52.48.790,catalan_exp2,2022.1.4,Win32,59.10165485,,,,,,,,,,,,,,,0,1,1,0,1,main_trial_block1.xlsx,,,,,,,,,,,,,,,,,
,,,,,,,,,,lrs017,03-03-2023_16h52.48.790,catalan_exp2,2022.1.4,Win32,59.10165485,,,,,,,,,,,,,,,,,,,,,space,6.5409,0,0,0,0,1,,,,,,,,,,
,,,,,,,,,,lrs017,03-03-2023_16h52.48.790,catalan_exp2,2022.1.4,Win32,59.10165485,,,space,5.0677,0,0,0,3,1,target,ultimate,"""El president de l'estat està malalt"" —va disseminar prematura.",disseminar,1,,,,,,,,,,,,,,,,,,,,,,,
,,,,,,,,,,lrs017,03-03-2023_16h52.48.790,catalan_exp2,2022.1.4,Win32,59.10165485,,,space,3.9894,0,1,1,10,1,target,penultimate,"""No són necessaris"" —elimina segura.",eliminar,1,,,,,,,,,,,,,,,,,,,,,,,
,,,,,,,,,,lrs017,03-03-2023_16h52.48.790,catalan_exp2,2022.1.4,Win32,59.10165485,,,space,4.55,0,2,2,12,1,target,penultimate,"""No hi haurà més bestioles"" —extermina complaguda.",exterminar,1,,,,,,,,,,,,,,,,,,,,,,,
,,,,,,,,,,lrs017,03-03-2023_16h52.48.790,catalan_exp2,2022.1.4,Win32,59.10165485,,,space,3.7489,0,3,3,8,1,target,penultimate,"""Aquest té menys sucre"" —discrimina tímid.",discriminar,1,,,,,,,,,,,,,,,,,,,,,,,
,,,,,,,,,,lrs017,03-03-2023_16h52.48.790,catalan_exp2,2022.1.4,Win32,59.10165485,,,space,4.5632,0,4,4,13,1,target,ultimate,"""Retrat d'un home trist"" —va denominar concret.",denominar,1,,,,,,,,,,,,,,,,,,,,,,,
,,,,,,,,,,lrs017,03-03-2023_16h52.48.790,catalan_exp2,2022.1.4,Win32,59.10165485,,,space,4.2797,0,5,5,0,1,target,penultimate,"""No m'agrada el te de camamilla"" —abomina plena.",abominar,1,,,,,,,,,,,,,,,,,,,,,,,
,,,,,,,,,,lrs017,03-03-2023_16h52.48.790,catalan_exp2,2022.1.4,Win32,59.10165485,,,space,4.347,0,6,6,4,1,target,penultimate,"""Escriguin la resposta"" —els examina clarament.",examinar,1,,,,,,,,,,,,,,,,,,,,,,,
,,,,,,,,,,lrs017,03-03-2023_16h52.48.790,catalan_exp2,2022.1.4,Win32,59.10165485,,,space,4.3337,0,7,7,6,1,target,penultimate,"""Confirmin la cita per demà"" —les encamina tímida.",encaminar,1,,,,,,,,,,,,,,,,,,,,,,,
,,,,,,,,,,lrs017,03-03-2023_16h52.48.790,catalan_exp2,2022.1.4,Win32,59.10165485,,,space,4.913,0,8,8,2,1,target,penultimate,"""Aquest no és el meu número de telèfon"" —la descamina complagut.",descaminar,1,,,,,,,,,,,,,,,,,,,,,,,
,,,,,,,,,,lrs017,03-03-2023_16h52.48.790,catalan_exp2,2022.1.4,Win32,59.10165485,,,space,4.9934,0,9,9,9,1,target,ultimate,"""No puc cuinar sense cremar el menjar"" —es va desanimar seriós.",desanimar,1,,,,,,,,,,,,,,,,,,,,,,,
,,,,,,,,,,lrs017,03-03-2023_16h52.48.790,catalan_exp2,2022.1.4,Win32,59.10165485,,,space,5.2576,0,10,10,1,1,target,ultimate,"""Amb la pluja el vent és molt fort"" —va determinar complaguda.",determinar,1,,,,,,,,,,,,,,,,,,,,,,,
,,,,,,,,,,lrs017,03-03-2023_16h52.48.790,catalan_exp2,2022.1.4,Win32,59.10165485,,,space,5.0485,0,11,11,11,1,target,ultimate,"""Van entrar sense demanar permís"" —les va incriminar confiat.",incriminar,1,,,,,,,,,,,,,,,,,,,,,,,
,,,,,,,,,,lrs017,03-03-2023_16h52.48.790,catalan_exp2,2022.1.4,Win32,59.10165485,,,space,4.4796,0,12,12,5,1,target,ultimate,"""Acabo de comprar aquest llum"" —va il·luminar content.",illuminar,1,,,,,,,,,,,,,,,,,,,,,,,
,,,,,,,,,,lrs017,03-03-2023_16h52.48.790,catalan_exp2,2022.1.4,Win32,59.10165485,,,space,4.3653,0,13,13,7,1,target,ultimate,"""És culpa teva"" —li va recriminar seriosa.",recriminar,1,,,,,,,,,,,,,,,,,,,,,,,
,,,,,,,,,,lrs017,03-03-2023_16h52.48.790,catalan_exp2,2022.1.4,Win32,59.10165485,,,,,,,,,,,,,,,0,0,0,0,1,main_trial_block1.xlsx,,,,,,,,,,,,,,,,,
,,,,,,,,,,lrs017,03-03-2023_16h52.48.790,catalan_exp2,2022.1.4,Win32,59.10165485,,,space,4.0339,0,0,0,4,1,target,ultimate,"""Facin aquesta equació"" —els va examinar clarament.",examinar,2,,,,,,,,,,,,,,,,,,,,,,,
,,,,,,,,,,lrs017,03-03-2023_16h52.48.790,catalan_exp2,2022.1.4,Win32,59.10165485,,,space,4.96,0,1,1,1,1,target,penultimate,"""La massa de l'àtom és mesurable"" —determina complaguda.",determinar,2,,,,,,,,,,,,,,,,,,,,,,,
,,,,,,,,,,lrs017,03-03-2023_16h52.48.790,catalan_exp2,2022.1.4,Win32,59.10165485,,,space,4.4335,0,2,2,13,1,target,penultimate,"""Aquest gen es diu beta"" —denomina concret.",denominar,2,,,,,,,,,,,,,,,,,,,,,,,
,,,,,,,,,,lrs017,03-03-2023_16h52.48.790,catalan_exp2,2022.1.4,Win32,59.10165485,,,space,4.5535,0,3,3,6,1,target,ultimate,"""Llegiu aquests articles"" —les va encaminar tímida.",encaminar,2,,,,,,,,,,,,,,,,,,,,,,,
,,,,,,,,,,lrs017,03-03-2023_16h52.48.790,catalan_exp2,2022.1.4,Win32,59.10165485,,,space,4.9451,0,4,4,11,1,target,penultimate,"""Vostès són les culpables"" —les incrimina confiat.",incriminar,2,,,,,,,,,,,,,,,,,,,,,,,
,,,,,,,,,,lrs017,03-03-2023_16h52.48.790,catalan_exp2,2022.1.4,Win32,59.10165485,,,space,4.6792,0,5,5,10,1,target,ultimate,"""Érem a casa a l'hora del crim"" —va eliminar segura.",eliminar,2,,,,,,,,,,,,,,,,,,,,,,,
,,,,,,,,,,lrs017,03-03-2023_16h52.48.790,catalan_exp2,2022.1.4,Win32,59.10165485,,,space,4.0233,0,6,6,5,1,target,penultimate,"""Bon Nadal a tots"" —il·lumina content.",illuminar,2,,,,,,,,,,,,,,,,,,,,,,,
,,,,,,,,,,lrs017,03-03-2023_16h52.48.790,catalan_exp2,2022.1.4,Win32,59.10165485,,,space,4.9053,0,7,7,0,1,target,ultimate,"""No m'agraden gens les curses de braus"" —va abominar plena.",abominar,2,,,,,,,,,,,,,,,,,,,,,,,
,,,,,,,,,,lrs017,03-03-2023_16h52.48.790,catalan_exp2,2022.1.4,Win32,59.10165485,,,space,4.3622,0,8,8,9,1,target,penultimate,"""No passaré mai l'examen"" —es desanima seriós.",desanimar,2,,,,,,,,,,,,,,,,,,,,,,,
,,,,,,,,,,lrs017,03-03-2023_16h52.48.790,catalan_exp2,2022.1.4,Win32,59.10165485,,,space,4.8336,0,9,9,2,1,target,ultimate,"""Aquest és el camí més curt"" —la va descaminar complagut.",descaminar,2,,,,,,,,,,,,,,,,,,,,,,,
,,,,,,,,,,lrs017,03-03-2023_16h52.48.790,catalan_exp2,2022.1.4,Win32,59.10165485,,,space,4.485,0,10,10,12,1,target,ultimate,"""Aquest verí va molt bé"" —va exterminar complaguda.",exterminar,2,,,,,,,,,,,,,,,,,,,,,,,
,,,,,,,,,,lrs017,03-03-2023_16h52.48.790,catalan_exp2,2022.1.4,Win32,59.10165485,,,space,4.6385,0,11,11,7,1,target,penultimate,"""No m'agrada que em truquis"" —li recrimina seriosa.",recriminar,2,,,,,,,,,,,,,,,,,,,,,,,
,,,,,,,,,,lrs017,03-03-2023_16h52.48.790,catalan_exp2,2022.1.4,Win32,59.10165485,,,space,4.0573,0,12,12,8,1,target,ultimate,"""Aquest és més fort"" —va discriminar tímid.",discriminar,2,,,,,,,,,,,,,,,,,,,,,,,
,,,,,,,,,,lrs017,03-03-2023_16h52.48.790,catalan_exp2,2022.1.4,Win32,59.10165485,,,space,5.2718,0,13,13,3,1,target,penultimate,"""La senyora Martí renuncia al seu càrrec"" —dissemina prematura.",disseminar,2,,,,,,,,,,,,,,,,,,,,,,,
,,,,,,,,,,lrs017,03-03-2023_16h52.48.790,catalan_exp2,2022.1.4,Win32,59.10165485,,,,,,,,,,,,,,,0,1,1,1,1,main_trial_block2.xlsx,,,,,,,,,,,,,,,,,
,,,,,,,,,,lrs017,03-03-2023_16h52.48.790,catalan_exp2,2022.1.4,Win32,59.10165485,,,,,,,,,,,,,,,,,,,,,space,5.8985,1,0,1,0,1,,,,,,,,,,
,,,,,,,,,,lrs017,03-03-2023_16h52.48.790,catalan_exp2,2022.1.4,Win32,59.10165485,,,space,5.2711,,,,,,target,ultimate,"""No puc cuinar sense cremar el menjar"" —es va desanimar seriós.",desanimar,1,,,,,,,,,,,,,,0,0,0,9,1,,,,,
,,,,,,,,,,lrs017,03-03-2023_16h52.48.790,catalan_exp2,2022.1.4,Win32,59.10165485,,,space,5.026,,,,,,target,ultimate,"""Amb la pluja el vent és molt fort"" —va determinar complaguda.",determinar,1,,,,,,,,,,,,,,0,1,1,1,1,,,,,
,,,,,,,,,,lrs017,03-03-2023_16h52.48.790,catalan_exp2,2022.1.4,Win32,59.10165485,,,space,4.7736,,,,,,target,ultimate,"""Van entrar sense demanar permís"" —les va incriminar confiat.",incriminar,1,,,,,,,,,,,,,,0,2,2,11,1,,,,,
,,,,,,,,,,lrs017,03-03-2023_16h52.48.790,catalan_exp2,2022.1.4,Win32,59.10165485,,,space,4.0431,,,,,,target,ultimate,"""Acabo de comprar aquest llum"" —va il·luminar content.",illuminar,1,,,,,,,,,,,,,,0,3,3,5,1,,,,,
,,,,,,,,,,lrs017,03-03-2023_16h52.48.790,catalan_exp2,2022.1.4,Win32,59.10165485,,,space,4.5836,,,,,,target,penultimate,"""Confirmin la cita per demà"" —les encamina tímida.",encaminar,1,,,,,,,,,,,,,,0,4,4,6,1,,,,,
,,,,,,,,,,lrs017,03-03-2023_16h52.48.790,catalan_exp2,2022.1.4,Win32,59.10165485,,,space,4.2578,,,,,,target,penultimate,"""Escriguin la resposta"" —els examina clarament.",examinar,1,,,,,,,,,,,,,,0,5,5,4,1,,,,,
,,,,,,,,,,lrs017,03-03-2023_16h52.48.790,catalan_exp2,2022.1.4,Win32,59.10165485,,,space,4.6199,,,,,,target,penultimate,"""No hi haurà més bestioles"" —extermina complaguda.",exterminar,1,,,,,,,,,,,,,,0,6,6,12,1,,,,,
,,,,,,,,,,lrs017,03-03-2023_16h52.48.790,catalan_exp2,2022.1.4,Win32,59.10165485,,,space,4.1289,,,,,,target,penultimate,"""No m'agrada el te de camamilla"" —abomina plena.",abominar,1,,,,,,,,,,,,,,0,7,7,0,1,,,,,
,,,,,,,,,,lrs017,03-03-2023_16h52.48.790,catalan_exp2,2022.1.4,Win32,59.10165485,,,space,4.2896,,,,,,target,ultimate,"""Retrat d'un home trist"" —va denominar concret.",denominar,1,,,,,,,,,,,,,,0,8,8,13,1,,,,,
,,,,,,,,,,lrs017,03-03-2023_16h52.48.790,catalan_exp2,2022.1.4,Win32,59.10165485,,,space,4.8041,,,,,,target,penultimate,"""Aquest no és el meu número de telèfon"" —la descamina complagut.",descaminar,1,,,,,,,,,,,,,,0,9,9,2,1,,,,,
,,,,,,,,,,lrs017,03-03-2023_16h52.48.790,catalan_exp2,2022.1.4,Win32,59.10165485,,,space,3.9021,,,,,,target,ultimate,"""És culpa teva"" —li va recriminar seriosa.",recriminar,1,,,,,,,,,,,,,,0,10,10,7,1,,,,,
,,,,,,,,,,lrs017,03-03-2023_16h52.48.790,catalan_exp2,2022.1.4,Win32,59.10165485,,,space,4.2202,,,,,,target,penultimate,"""No són necessaris"" —elimina segura.",eliminar,1,,,,,,,,,,,,,,0,11,11,10,1,,,,,
,,,,,,,,,,lrs017,03-03-2023_16h52.48.790,catalan_exp2,2022.1.4,Win32,59.10165485,,,space,5.5069,,,,,,target,penultimate,"""Aquest té menys sucre"" —discrimina tímid.",discriminar,1,,,,,,,,,,,,,,0,12,12,8,1,,,,,
,,,,,,,,,,lrs017,03-03-2023_16h52.48.790,catalan_exp2,2022.1.4,Win32,59.10165485,,,space,5.126,,,,,,target,ultimate,"""El president de l'estat està malalt"" —va disseminar prematura.",disseminar,1,,,,,,,,,,,,,,0,13,13,3,1,,,,,
,,,,,,,,,,lrs017,03-03-2023_16h52.48.790,catalan_exp2,2022.1.4,Win32,59.10165485,,,,,,,,,,,,,,,,,,,,main_trial_block1.xlsx,,,,,,,,,,,,,0,0,0,0,1
,,,,,,,,,,lrs017,03-03-2023_16h52.48.790,catalan_exp2,2022.1.4,Win32,59.10165485,,,space,4.6261,,,,,,target,penultimate,"""Aquest gen es diu beta"" —denomina concret.",denominar,2,,,,,,,,,,,,,,0,0,0,13,1,,,,,
,,,,,,,,,,lrs017,03-03-2023_16h52.48.790,catalan_exp2,2022.1.4,Win32,59.10165485,,,space,4.484,,,,,,target,penultimate,"""Vostès són les culpables"" —les incrimina confiat.",incriminar,2,,,,,,,,,,,,,,0,1,1,11,1,,,,,
,,,,,,,,,,lrs017,03-03-2023_16h52.48.790,catalan_exp2,2022.1.4,Win32,59.10165485,,,space,5.3131,,,,,,target,penultimate,"""La senyora Martí renuncia al seu càrrec"" —dissemina prematura.",disseminar,2,,,,,,,,,,,,,,0,2,2,3,1,,,,,
,,,,,,,,,,lrs017,03-03-2023_16h52.48.790,catalan_exp2,2022.1.4,Win32,59.10165485,,,space,5.1654,,,,,,target,penultimate,"""La massa de l'àtom és mesurable"" —determina complaguda.",determinar,2,,,,,,,,,,,,,,0,3,3,1,1,,,,,
,,,,,,,,,,lrs017,03-03-2023_16h52.48.790,catalan_exp2,2022.1.4,Win32,59.10165485,,,space,4.3827,,,,,,target,ultimate,"""Érem a casa a l'hora del crim"" —va eliminar segura.",eliminar,2,,,,,,,,,,,,,,0,4,4,10,1,,,,,
,,,,,,,,,,lrs017,03-03-2023_16h52.48.790,catalan_exp2,2022.1.4,Win32,59.10165485,,,space,4.3087,,,,,,target,ultimate,"""Llegiu aquests articles"" —les va encaminar tímida.",encaminar,2,,,,,,,,,,,,,,0,5,5,6,1,,,,,
,,,,,,,,,,lrs017,03-03-2023_16h52.48.790,catalan_exp2,2022.1.4,Win32,59.10165485,,,space,4.2273,,,,,,target,penultimate,"""No passaré mai l'examen"" —es desanima seriós.",desanimar,2,,,,,,,,,,,,,,0,6,6,9,1,,,,,
,,,,,,,,,,lrs017,03-03-2023_16h52.48.790,catalan_exp2,2022.1.4,Win32,59.10165485,,,space,4.8637,,,,,,target,ultimate,"""No m'agraden gens les curses de braus"" —va abominar plena.",abominar,2,,,,,,,,,,,,,,0,7,7,0,1,,,,,
,,,,,,,,,,lrs017,03-03-2023_16h52.48.790,catalan_exp2,2022.1.4,Win32,59.10165485,,,space,5.2685,,,,,,target,ultimate,"""Aquest és el camí més curt"" —la va descaminar complagut.",descaminar,2,,,,,,,,,,,,,,0,8,8,2,1,,,,,
,,,,,,,,,,lrs017,03-03-2023_16h52.48.790,catalan_exp2,2022.1.4,Win32,59.10165485,,,space,4.6297,,,,,,target,ultimate,"""Facin aquesta equació"" —els va examinar clarament.",examinar,2,,,,,,,,,,,,,,0,9,9,4,1,,,,,
,,,,,,,,,,lrs017,03-03-2023_16h52.48.790,catalan_exp2,2022.1.4,Win32,59.10165485,,,space,3.9294,,,,,,target,penultimate,"""Bon Nadal a tots"" —il·lumina content.",illuminar,2,,,,,,,,,,,,,,0,10,10,5,1,,,,,
,,,,,,,,,,lrs017,03-03-2023_16h52.48.790,catalan_exp2,2022.1.4,Win32,59.10165485,,,space,4.4368,,,,,,target,penultimate,"""No m'agrada que em truquis"" —li recrimina seriosa.",recriminar,2,,,,,,,,,,,,,,0,11,11,7,1,,,,,
,,,,,,,,,,lrs017,03-03-2023_16h52.48.790,catalan_exp2,2022.1.4,Win32,59.10165485,,,space,4.4219,,,,,,target,ultimate,"""Aquest és més fort"" —va discriminar tímid.",discriminar,2,,,,,,,,,,,,,,0,12,12,8,1,,,,,
,,,,,,,,,,lrs017,03-03-2023_16h52.48.790,catalan_exp2,2022.1.4,Win32,59.10165485,,,space,4.3651,,,,,,target,ultimate,"""Aquest verí va molt bé"" —va exterminar complaguda.",exterminar,2,,,,,,,,,,,,,,0,13,13,12,1,,,,,
,,,,,,,,,,lrs017,03-03-2023_16h52.48.790,catalan_exp2,2022.1.4,Win32,59.10165485,,,,,,,,,,,,,,,,,,,,main_trial_block2.xlsx,,,,,,,,,,,,,0,1,1,1,1
