key_resp.keys,key_resp.rt,key_resp_2.keys,key_resp_2.rt,trials_2.thisRepN,trials_2.thisTrialN,trials_2.thisN,trials_2.thisIndex,trials_2.ran,trialcatalan,participant ID,date,expName,psychopyVersion,OS,frameRate,key_resp_3.keys,key_resp_3.rt,key_resp_4.keys,key_resp_4.rt,trial_randomizer.thisRepN,trial_randomizer.thisTrialN,trial_randomizer.thisN,trial_randomizer.thisIndex,trial_randomizer.ran,fillertarget,stress,wordcatalan,verbcatalan,rand_12,block_randomizer.thisRepN,block_randomizer.thisTrialN,block_randomizer.thisN,block_randomizer.thisIndex,block_randomizer.ran,condsFile,key_resp_5.keys,key_resp_5.rt,mainTrialRep.thisRepN,mainTrialRep.thisTrialN,mainTrialRep.thisN,mainTrialRep.thisIndex,mainTrialRep.ran,trial_randomizer2.thisRepN,trial_randomizer2.thisTrialN,trial_randomizer2.thisN,trial_randomizer2.thisIndex,trial_randomizer2.ran,block_randomizer2.thisRepN,block_randomizer2.thisTrialN,block_randomizer2.thisN,block_randomizer2.thisIndex,block_randomizer2.ran
space,29.1882,space,4.2329,0,0,0,3,1,"""T'estimo molt"" —va sospirar content.",,2023-03-15_12h21.31.868,catalan_exp2,2022.1.4,Win32,15.00555205,,,,,,,,,,,,,,,,,,,,,,,,,,,,,,,,,,,,,
,,space,4.9029,0,1,1,0,1,"""Ha regalat un pastís al seu nebot"" —va pensar confiat.",,2023-03-15_12h21.31.868,catalan_exp2,2022.1.4,Win32,15.00555205,,,,,,,,,,,,,,,,,,,,,,,,,,,,,,,,,,,,,
,,space,4.1118,0,2,2,1,1,"""Depèn de la temporada"" —explica seriòs.",,2023-03-15_12h21.31.868,catalan_exp2,2022.1.4,Win32,15.00555205,,,,,,,,,,,,,,,,,,,,,,,,,,,,,,,,,,,,,
,,space,4.2034,0,3,3,2,1,"""Voldria una mica de cafè"" —pensa complaguda.",,2023-03-15_12h21.31.868,catalan_exp2,2022.1.4,Win32,15.00555205,,,,,,,,,,,,,,,,,,,,,,,,,,,,,,,,,,,,,
,,,,,,,,,,,2023-03-15_12h21.31.868,catalan_exp2,2022.1.4,Win32,15.00555205,space,5.3283,space,6.8105,0,0,0,9,1,target,ultimate,"""No puc cuinar sense cremar el menjar"" —es va desanimar seriós.",desanimar,1,,,,,,,,,,,,,,,,,,,,,,,
,,,,,,,,,,,2023-03-15_12h21.31.868,catalan_exp2,2022.1.4,Win32,15.00555205,,,space,4.5318,0,1,1,10,1,target,penultimate,"""No són necessaris"" —elimina segura.",eliminar,1,,,,,,,,,,,,,,,,,,,,,,,
,,,,,,,,,,,2023-03-15_12h21.31.868,catalan_exp2,2022.1.4,Win32,15.00555205,,,space,4.8221,0,2,2,8,1,target,penultimate,"""Aquest té menys sucre"" —discrimina tímid.",discriminar,1,,,,,,,,,,,,,,,,,,,,,,,
,,,,,,,,,,,2023-03-15_12h21.31.868,catalan_exp2,2022.1.4,Win32,15.00555205,,,space,4.6417,0,3,3,4,1,target,penultimate,"""Escriguin la resposta"" —els examina clarament.",examinar,1,,,,,,,,,,,,,,,,,,,,,,,
,,,,,,,,,,,2023-03-15_12h21.31.868,catalan_exp2,2022.1.4,Win32,15.00555205,,,space,5.2504,0,4,4,11,1,target,ultimate,"""Van entrar sense demanar permís"" —les va incriminar confiat.",incriminar,1,,,,,,,,,,,,,,,,,,,,,,,
,,,,,,,,,,,2023-03-15_12h21.31.868,catalan_exp2,2022.1.4,Win32,15.00555205,,,space,5.4775,0,5,5,0,1,target,penultimate,"""No m'agrada el te de camamilla"" —abomina plena.",abominar,1,,,,,,,,,,,,,,,,,,,,,,,
,,,,,,,,,,,2023-03-15_12h21.31.868,catalan_exp2,2022.1.4,Win32,15.00555205,,,space,4.6822,0,6,6,12,1,target,penultimate,"""No hi haurà més bestioles"" —extermina complaguda.",exterminar,1,,,,,,,,,,,,,,,,,,,,,,,
,,,,,,,,,,,2023-03-15_12h21.31.868,catalan_exp2,2022.1.4,Win32,15.00555205,,,space,4.9612,0,7,7,6,1,target,penultimate,"""Confirmin la cita per demà"" —les encamina tímida.",encaminar,1,,,,,,,,,,,,,,,,,,,,,,,
,,,,,,,,,,,2023-03-15_12h21.31.868,catalan_exp2,2022.1.4,Win32,15.00555205,,,space,11.3463,0,8,8,3,1,target,ultimate,"""El president de l'estat està malalt"" —va disseminar prematura.",disseminar,1,,,,,,,,,,,,,,,,,,,,,,,
,,,,,,,,,,,2023-03-15_12h21.31.868,catalan_exp2,2022.1.4,Win32,15.00555205,,,space,5.7033,0,9,9,2,1,target,penultimate,"""Aquest no és el meu número de telèfon"" —la descamina complagut.",descaminar,1,,,,,,,,,,,,,,,,,,,,,,,
,,,,,,,,,,,2023-03-15_12h21.31.868,catalan_exp2,2022.1.4,Win32,15.00555205,,,space,3.9972,0,10,10,7,1,target,ultimate,"""És culpa teva"" —li va recriminar seriosa.",recriminar,1,,,,,,,,,,,,,,,,,,,,,,,
,,,,,,,,,,,2023-03-15_12h21.31.868,catalan_exp2,2022.1.4,Win32,15.00555205,,,space,4.6181,0,11,11,13,1,target,ultimate,"""Retrat d'un home trist"" —va denominar concret.",denominar,1,,,,,,,,,,,,,,,,,,,,,,,
,,,,,,,,,,,2023-03-15_12h21.31.868,catalan_exp2,2022.1.4,Win32,15.00555205,,,space,4.5978,0,12,12,5,1,target,ultimate,"""Acabo de comprar aquest llum"" —va il·luminar content.",illuminar,1,,,,,,,,,,,,,,,,,,,,,,,
,,,,,,,,,,,2023-03-15_12h21.31.868,catalan_exp2,2022.1.4,Win32,15.00555205,,,space,0.8716,0,13,13,1,1,target,ultimate,"""Amb la pluja el vent és molt fort"" —va determinar complaguda.",determinar,1,,,,,,,,,,,,,,,,,,,,,,,
,,,,,,,,,,,2023-03-15_12h21.31.868,catalan_exp2,2022.1.4,Win32,15.00555205,,,,,,,,,,,,,,,0,0,0,0,1,main_trial_block1.xlsx,,,,,,,,,,,,,,,,,
,,,,,,,,,,,2023-03-15_12h21.31.868,catalan_exp2,2022.1.4,Win32,15.00555205,,,space,5.4474,0,0,0,3,1,target,penultimate,"""La senyora Martí renuncia al seu càrrec"" —dissemina prematura.",disseminar,2,,,,,,,,,,,,,,,,,,,,,,,
,,,,,,,,,,,2023-03-15_12h21.31.868,catalan_exp2,2022.1.4,Win32,15.00555205,,,space,8.9663,0,1,1,9,1,target,penultimate,"""No passaré mai l'examen"" —es desanima seriós.",desanimar,2,,,,,,,,,,,,,,,,,,,,,,,
,,,,,,,,,,,2023-03-15_12h21.31.868,catalan_exp2,2022.1.4,Win32,15.00555205,,,space,5.2157,0,2,2,1,1,target,penultimate,"""La massa de l'àtom és mesurable"" —determina complaguda.",determinar,2,,,,,,,,,,,,,,,,,,,,,,,
,,,,,,,,,,,2023-03-15_12h21.31.868,catalan_exp2,2022.1.4,Win32,15.00555205,,,space,4.3997,0,3,3,13,1,target,penultimate,"""Aquest gen es diu beta"" —denomina concret.",denominar,2,,,,,,,,,,,,,,,,,,,,,,,
,,,,,,,,,,,2023-03-15_12h21.31.868,catalan_exp2,2022.1.4,Win32,15.00555205,,,space,4.9656,0,4,4,2,1,target,ultimate,"""Aquest és el camí més curt"" —la va descaminar complagut.",descaminar,2,,,,,,,,,,,,,,,,,,,,,,,
,,,,,,,,,,,2023-03-15_12h21.31.868,catalan_exp2,2022.1.4,Win32,15.00555205,,,space,4.9587,0,5,5,6,1,target,ultimate,"""Llegiu aquests articles"" —les va encaminar tímida.",encaminar,2,,,,,,,,,,,,,,,,,,,,,,,
,,,,,,,,,,,2023-03-15_12h21.31.868,catalan_exp2,2022.1.4,Win32,15.00555205,,,space,4.0686,0,6,6,7,1,target,penultimate,"""No m'agrada que em truquis"" —li recrimina seriosa.",recriminar,2,,,,,,,,,,,,,,,,,,,,,,,
,,,,,,,,,,,2023-03-15_12h21.31.868,catalan_exp2,2022.1.4,Win32,15.00555205,,,space,4.1832,0,7,7,8,1,target,ultimate,"""Aquest és més fort"" —va discriminar tímid.",discriminar,2,,,,,,,,,,,,,,,,,,,,,,,
,,,,,,,,,,,2023-03-15_12h21.31.868,catalan_exp2,2022.1.4,Win32,15.00555205,,,space,4.5562,0,8,8,4,1,target,ultimate,"""Facin aquesta equació"" —els va examinar clarament.",examinar,2,,,,,,,,,,,,,,,,,,,,,,,
,,,,,,,,,,,2023-03-15_12h21.31.868,catalan_exp2,2022.1.4,Win32,15.00555205,,,space,4.2657,0,9,9,10,1,target,ultimate,"""Érem a casa a l'hora del crim"" —va eliminar segura.",eliminar,2,,,,,,,,,,,,,,,,,,,,,,,
,,,,,,,,,,,2023-03-15_12h21.31.868,catalan_exp2,2022.1.4,Win32,15.00555205,,,space,3.8964,0,10,10,5,1,target,penultimate,"""Bon Nadal a tots"" —il·lumina content.",illuminar,2,,,,,,,,,,,,,,,,,,,,,,,
,,,,,,,,,,,2023-03-15_12h21.31.868,catalan_exp2,2022.1.4,Win32,15.00555205,,,space,4.8549,0,11,11,11,1,target,penultimate,"""Vostès són les culpables"" —les incrimina confiat.",incriminar,2,,,,,,,,,,,,,,,,,,,,,,,
,,,,,,,,,,,2023-03-15_12h21.31.868,catalan_exp2,2022.1.4,Win32,15.00555205,,,space,4.7863,0,12,12,12,1,target,ultimate,"""Aquest verí va molt bé"" —va exterminar complaguda.",exterminar,2,,,,,,,,,,,,,,,,,,,,,,,
,,,,,,,,,,,2023-03-15_12h21.31.868,catalan_exp2,2022.1.4,Win32,15.00555205,,,space,5.2107,0,13,13,0,1,target,ultimate,"""No m'agraden gens les curses de braus"" —va abominar plena.",abominar,2,,,,,,,,,,,,,,,,,,,,,,,
,,,,,,,,,,,2023-03-15_12h21.31.868,catalan_exp2,2022.1.4,Win32,15.00555205,,,,,,,,,,,,,,,0,1,1,1,1,main_trial_block2.xlsx,,,,,,,,,,,,,,,,,
,,,,,,,,,,,2023-03-15_12h21.31.868,catalan_exp2,2022.1.4,Win32,15.00555205,,,,,,,,,,,,,,,,,,,,,space,11.5832,0,0,0,0,1,,,,,,,,,,
,,,,,,,,,,,2023-03-15_12h21.31.868,catalan_exp2,2022.1.4,Win32,15.00555205,,,space,4.4394,0,0,0,8,1,target,penultimate,"""Aquest té menys sucre"" —discrimina tímid.",discriminar,1,,,,,,,,,,,,,,,,,,,,,,,
,,,,,,,,,,,2023-03-15_12h21.31.868,catalan_exp2,2022.1.4,Win32,15.00555205,,,space,4.6965,0,1,1,11,1,target,ultimate,"""Van entrar sense demanar permís"" —les va incriminar confiat.",incriminar,1,,,,,,,,,,,,,,,,,,,,,,,
,,,,,,,,,,,2023-03-15_12h21.31.868,catalan_exp2,2022.1.4,Win32,15.00555205,,,space,5.0489,0,2,2,4,1,target,penultimate,"""Escriguin la resposta"" —els examina clarament.",examinar,1,,,,,,,,,,,,,,,,,,,,,,,
,,,,,,,,,,,2023-03-15_12h21.31.868,catalan_exp2,2022.1.4,Win32,15.00555205,,,space,5.4497,0,3,3,13,1,target,ultimate,"""Retrat d'un home trist"" —va denominar concret.",denominar,1,,,,,,,,,,,,,,,,,,,,,,,
,,,,,,,,,,,2023-03-15_12h21.31.868,catalan_exp2,2022.1.4,Win32,15.00555205,,,space,5.5836,0,4,4,3,1,target,ultimate,"""El president de l'estat està malalt"" —va disseminar prematura.",disseminar,1,,,,,,,,,,,,,,,,,,,,,,,
,,,,,,,,,,,2023-03-15_12h21.31.868,catalan_exp2,2022.1.4,Win32,15.00555205,,,space,5.6988,0,5,5,2,1,target,penultimate,"""Aquest no és el meu número de telèfon"" —la descamina complagut.",descaminar,1,,,,,,,,,,,,,,,,,,,,,,,
,,,,,,,,,,,2023-03-15_12h21.31.868,catalan_exp2,2022.1.4,Win32,15.00555205,,,space,4.8619,0,6,6,5,1,target,ultimate,"""Acabo de comprar aquest llum"" —va il·luminar content.",illuminar,1,,,,,,,,,,,,,,,,,,,,,,,
,,,,,,,,,,,2023-03-15_12h21.31.868,catalan_exp2,2022.1.4,Win32,15.00555205,,,space,4.8528,0,7,7,12,1,target,penultimate,"""No hi haurà més bestioles"" —extermina complaguda.",exterminar,1,,,,,,,,,,,,,,,,,,,,,,,
,,,,,,,,,,,2023-03-15_12h21.31.868,catalan_exp2,2022.1.4,Win32,15.00555205,,,space,4.0191,0,8,8,10,1,target,penultimate,"""No són necessaris"" —elimina segura.",eliminar,1,,,,,,,,,,,,,,,,,,,,,,,
,,,,,,,,,,,2023-03-15_12h21.31.868,catalan_exp2,2022.1.4,Win32,15.00555205,,,space,5.1687,0,9,9,1,1,target,ultimate,"""Amb la pluja el vent és molt fort"" —va determinar complaguda.",determinar,1,,,,,,,,,,,,,,,,,,,,,,,
,,,,,,,,,,,2023-03-15_12h21.31.868,catalan_exp2,2022.1.4,Win32,15.00555205,,,space,4.8368,0,10,10,6,1,target,penultimate,"""Confirmin la cita per demà"" —les encamina tímida.",encaminar,1,,,,,,,,,,,,,,,,,,,,,,,
,,,,,,,,,,,2023-03-15_12h21.31.868,catalan_exp2,2022.1.4,Win32,15.00555205,,,space,4.381,0,11,11,0,1,target,penultimate,"""No m'agrada el te de camamilla"" —abomina plena.",abominar,1,,,,,,,,,,,,,,,,,,,,,,,
,,,,,,,,,,,2023-03-15_12h21.31.868,catalan_exp2,2022.1.4,Win32,15.00555205,,,space,4.6639,0,12,12,7,1,target,ultimate,"""És culpa teva"" —li va recriminar seriosa.",recriminar,1,,,,,,,,,,,,,,,,,,,,,,,
,,,,,,,,,,,2023-03-15_12h21.31.868,catalan_exp2,2022.1.4,Win32,15.00555205,,,space,5.4952,0,13,13,9,1,target,ultimate,"""No puc cuinar sense cremar el menjar"" —es va desanimar seriós.",desanimar,1,,,,,,,,,,,,,,,,,,,,,,,
,,,,,,,,,,,2023-03-15_12h21.31.868,catalan_exp2,2022.1.4,Win32,15.00555205,,,,,,,,,,,,,,,0,0,0,0,1,main_trial_block1.xlsx,,,,,,,,,,,,,,,,,
,,,,,,,,,,,2023-03-15_12h21.31.868,catalan_exp2,2022.1.4,Win32,15.00555205,,,space,4.9259,0,0,0,2,1,target,ultimate,"""Aquest és el camí més curt"" —la va descaminar complagut.",descaminar,2,,,,,,,,,,,,,,,,,,,,,,,
,,,,,,,,,,,2023-03-15_12h21.31.868,catalan_exp2,2022.1.4,Win32,15.00555205,,,space,4.0348,0,1,1,7,1,target,penultimate,"""No m'agrada que em truquis"" —li recrimina seriosa.",recriminar,2,,,,,,,,,,,,,,,,,,,,,,,
,,,,,,,,,,,2023-03-15_12h21.31.868,catalan_exp2,2022.1.4,Win32,15.00555205,,,space,4.172,0,2,2,9,1,target,penultimate,"""No passaré mai l'examen"" —es desanima seriós.",desanimar,2,,,,,,,,,,,,,,,,,,,,,,,
,,,,,,,,,,,2023-03-15_12h21.31.868,catalan_exp2,2022.1.4,Win32,15.00555205,,,space,3.5156,0,3,3,5,1,target,penultimate,"""Bon Nadal a tots"" —il·lumina content.",illuminar,2,,,,,,,,,,,,,,,,,,,,,,,
,,,,,,,,,,,2023-03-15_12h21.31.868,catalan_exp2,2022.1.4,Win32,15.00555205,,,space,4.7849,0,4,4,1,1,target,penultimate,"""La massa de l'àtom és mesurable"" —determina complaguda.",determinar,2,,,,,,,,,,,,,,,,,,,,,,,
,,,,,,,,,,,2023-03-15_12h21.31.868,catalan_exp2,2022.1.4,Win32,15.00555205,,,space,4.7668,0,5,5,0,1,target,ultimate,"""No m'agraden gens les curses de braus"" —va abominar plena.",abominar,2,,,,,,,,,,,,,,,,,,,,,,,
,,,,,,,,,,,2023-03-15_12h21.31.868,catalan_exp2,2022.1.4,Win32,15.00555205,,,space,4.5412,0,6,6,8,1,target,ultimate,"""Aquest és més fort"" —va discriminar tímid.",discriminar,2,,,,,,,,,,,,,,,,,,,,,,,
,,,,,,,,,,,2023-03-15_12h21.31.868,catalan_exp2,2022.1.4,Win32,15.00555205,,,space,4.8925,0,7,7,11,1,target,penultimate,"""Vostès són les culpables"" —les incrimina confiat.",incriminar,2,,,,,,,,,,,,,,,,,,,,,,,
,,,,,,,,,,,2023-03-15_12h21.31.868,catalan_exp2,2022.1.4,Win32,15.00555205,,,space,4.6508,0,8,8,13,1,target,penultimate,"""Aquest gen es diu beta"" —denomina concret.",denominar,2,,,,,,,,,,,,,,,,,,,,,,,
,,,,,,,,,,,2023-03-15_12h21.31.868,catalan_exp2,2022.1.4,Win32,15.00555205,,,space,5.2406,0,9,9,3,1,target,penultimate,"""La senyora Martí renuncia al seu càrrec"" —dissemina prematura.",disseminar,2,,,,,,,,,,,,,,,,,,,,,,,
,,,,,,,,,,,2023-03-15_12h21.31.868,catalan_exp2,2022.1.4,Win32,15.00555205,,,space,4.1432,0,10,10,10,1,target,ultimate,"""Érem a casa a l'hora del crim"" —va eliminar segura.",eliminar,2,,,,,,,,,,,,,,,,,,,,,,,
,,,,,,,,,,,2023-03-15_12h21.31.868,catalan_exp2,2022.1.4,Win32,15.00555205,,,space,4.3322,0,11,11,12,1,target,ultimate,"""Aquest verí va molt bé"" —va exterminar complaguda.",exterminar,2,,,,,,,,,,,,,,,,,,,,,,,
,,,,,,,,,,,2023-03-15_12h21.31.868,catalan_exp2,2022.1.4,Win32,15.00555205,,,space,4.3242,0,12,12,6,1,target,ultimate,"""Llegiu aquests articles"" —les va encaminar tímida.",encaminar,2,,,,,,,,,,,,,,,,,,,,,,,
,,,,,,,,,,,2023-03-15_12h21.31.868,catalan_exp2,2022.1.4,Win32,15.00555205,,,space,4.4599,0,13,13,4,1,target,ultimate,"""Facin aquesta equació"" —els va examinar clarament.",examinar,2,,,,,,,,,,,,,,,,,,,,,,,
,,,,,,,,,,,2023-03-15_12h21.31.868,catalan_exp2,2022.1.4,Win32,15.00555205,,,,,,,,,,,,,,,0,1,1,1,1,main_trial_block2.xlsx,,,,,,,,,,,,,,,,,
,,,,,,,,,,,2023-03-15_12h21.31.868,catalan_exp2,2022.1.4,Win32,15.00555205,,,,,,,,,,,,,,,,,,,,,space,5.672,1,0,1,0,1,,,,,,,,,,
,,,,,,,,,,,2023-03-15_12h21.31.868,catalan_exp2,2022.1.4,Win32,15.00555205,,,space,5.0569,,,,,,target,penultimate,"""No m'agrada que em truquis"" —li recrimina seriosa.",recriminar,2,,,,,,,,,,,,,,0,0,0,7,1,,,,,
,,,,,,,,,,,2023-03-15_12h21.31.868,catalan_exp2,2022.1.4,Win32,15.00555205,,,space,4.2887,,,,,,target,ultimate,"""Érem a casa a l'hora del crim"" —va eliminar segura.",eliminar,2,,,,,,,,,,,,,,0,1,1,10,1,,,,,
,,,,,,,,,,,2023-03-15_12h21.31.868,catalan_exp2,2022.1.4,Win32,15.00555205,,,space,4.3983,,,,,,target,ultimate,"""Aquest verí va molt bé"" —va exterminar complaguda.",exterminar,2,,,,,,,,,,,,,,0,2,2,12,1,,,,,
,,,,,,,,,,,2023-03-15_12h21.31.868,catalan_exp2,2022.1.4,Win32,15.00555205,,,space,4.6554,,,,,,target,penultimate,"""No passaré mai l'examen"" —es desanima seriós.",desanimar,2,,,,,,,,,,,,,,0,3,3,9,1,,,,,
,,,,,,,,,,,2023-03-15_12h21.31.868,catalan_exp2,2022.1.4,Win32,15.00555205,,,space,4.5403,,,,,,target,ultimate,"""Facin aquesta equació"" —els va examinar clarament.",examinar,2,,,,,,,,,,,,,,0,4,4,4,1,,,,,
,,,,,,,,,,,2023-03-15_12h21.31.868,catalan_exp2,2022.1.4,Win32,15.00555205,,,space,4.3355,,,,,,target,penultimate,"""Vostès són les culpables"" —les incrimina confiat.",incriminar,2,,,,,,,,,,,,,,0,5,5,11,1,,,,,
,,,,,,,,,,,2023-03-15_12h21.31.868,catalan_exp2,2022.1.4,Win32,15.00555205,,,space,4.4202,,,,,,target,penultimate,"""Aquest gen es diu beta"" —denomina concret.",denominar,2,,,,,,,,,,,,,,0,6,6,13,1,,,,,
,,,,,,,,,,,2023-03-15_12h21.31.868,catalan_exp2,2022.1.4,Win32,15.00555205,,,space,3.8129,,,,,,target,penultimate,"""Bon Nadal a tots"" —il·lumina content.",illuminar,2,,,,,,,,,,,,,,0,7,7,5,1,,,,,
,,,,,,,,,,,2023-03-15_12h21.31.868,catalan_exp2,2022.1.4,Win32,15.00555205,,,space,4.859,,,,,,target,ultimate,"""No m'agraden gens les curses de braus"" —va abominar plena.",abominar,2,,,,,,,,,,,,,,0,8,8,0,1,,,,,
,,,,,,,,,,,2023-03-15_12h21.31.868,catalan_exp2,2022.1.4,Win32,15.00555205,,,space,4.3657,,,,,,target,ultimate,"""Llegiu aquests articles"" —les va encaminar tímida.",encaminar,2,,,,,,,,,,,,,,0,9,9,6,1,,,,,
,,,,,,,,,,,2023-03-15_12h21.31.868,catalan_exp2,2022.1.4,Win32,15.00555205,,,space,4.8833,,,,,,target,ultimate,"""Aquest és el camí més curt"" —la va descaminar complagut.",descaminar,2,,,,,,,,,,,,,,0,10,10,2,1,,,,,
,,,,,,,,,,,2023-03-15_12h21.31.868,catalan_exp2,2022.1.4,Win32,15.00555205,,,space,5.1846,,,,,,target,penultimate,"""La massa de l'àtom és mesurable"" —determina complaguda.",determinar,2,,,,,,,,,,,,,,0,11,11,1,1,,,,,
,,,,,,,,,,,2023-03-15_12h21.31.868,catalan_exp2,2022.1.4,Win32,15.00555205,,,space,5.2554,,,,,,target,penultimate,"""La senyora Martí renuncia al seu càrrec"" —dissemina prematura.",disseminar,2,,,,,,,,,,,,,,0,12,12,3,1,,,,,
,,,,,,,,,,,2023-03-15_12h21.31.868,catalan_exp2,2022.1.4,Win32,15.00555205,,,space,4.171,,,,,,target,ultimate,"""Aquest és més fort"" —va discriminar tímid.",discriminar,2,,,,,,,,,,,,,,0,13,13,8,1,,,,,
,,,,,,,,,,,2023-03-15_12h21.31.868,catalan_exp2,2022.1.4,Win32,15.00555205,,,,,,,,,,,,,,,,,,,,main_trial_block2.xlsx,,,,,,,,,,,,,0,0,0,1,1
,,,,,,,,,,,2023-03-15_12h21.31.868,catalan_exp2,2022.1.4,Win32,15.00555205,,,space,5.3023,,,,,,target,ultimate,"""Amb la pluja el vent és molt fort"" —va determinar complaguda.",determinar,1,,,,,,,,,,,,,,0,0,0,1,1,,,,,
,,,,,,,,,,,2023-03-15_12h21.31.868,catalan_exp2,2022.1.4,Win32,15.00555205,,,space,5.1395,,,,,,target,ultimate,"""Retrat d'un home trist"" —va denominar concret.",denominar,1,,,,,,,,,,,,,,0,1,1,13,1,,,,,
,,,,,,,,,,,2023-03-15_12h21.31.868,catalan_exp2,2022.1.4,Win32,15.00555205,,,space,4.5979,,,,,,target,ultimate,"""És culpa teva"" —li va recriminar seriosa.",recriminar,1,,,,,,,,,,,,,,0,2,2,7,1,,,,,
,,,,,,,,,,,2023-03-15_12h21.31.868,catalan_exp2,2022.1.4,Win32,15.00555205,,,space,4.6331,,,,,,target,penultimate,"""Aquest té menys sucre"" —discrimina tímid.",discriminar,1,,,,,,,,,,,,,,0,3,3,8,1,,,,,
,,,,,,,,,,,2023-03-15_12h21.31.868,catalan_exp2,2022.1.4,Win32,15.00555205,,,space,4.3063,,,,,,target,penultimate,"""No són necessaris"" —elimina segura.",eliminar,1,,,,,,,,,,,,,,0,4,4,10,1,,,,,
,,,,,,,,,,,2023-03-15_12h21.31.868,catalan_exp2,2022.1.4,Win32,15.00555205,,,space,4.5408,,,,,,target,penultimate,"""No m'agrada el te de camamilla"" —abomina plena.",abominar,1,,,,,,,,,,,,,,0,5,5,0,1,,,,,
,,,,,,,,,,,2023-03-15_12h21.31.868,catalan_exp2,2022.1.4,Win32,15.00555205,,,space,5.7199,,,,,,target,ultimate,"""Van entrar sense demanar permís"" —les va incriminar confiat.",incriminar,1,,,,,,,,,,,,,,0,6,6,11,1,,,,,
,,,,,,,,,,,2023-03-15_12h21.31.868,catalan_exp2,2022.1.4,Win32,15.00555205,,,space,5.2104,,,,,,target,penultimate,"""No hi haurà més bestioles"" —extermina complaguda.",exterminar,1,,,,,,,,,,,,,,0,7,7,12,1,,,,,
,,,,,,,,,,,2023-03-15_12h21.31.868,catalan_exp2,2022.1.4,Win32,15.00555205,,,space,4.6467,,,,,,target,penultimate,"""Escriguin la resposta"" —els examina clarament.",examinar,1,,,,,,,,,,,,,,0,8,8,4,1,,,,,
,,,,,,,,,,,2023-03-15_12h21.31.868,catalan_exp2,2022.1.4,Win32,15.00555205,,,space,5.1042,,,,,,target,penultimate,"""Confirmin la cita per demà"" —les encamina tímida.",encaminar,1,,,,,,,,,,,,,,0,9,9,6,1,,,,,
,,,,,,,,,,,2023-03-15_12h21.31.868,catalan_exp2,2022.1.4,Win32,15.00555205,,,space,4.6217,,,,,,target,ultimate,"""Acabo de comprar aquest llum"" —va il·luminar content.",illuminar,1,,,,,,,,,,,,,,0,10,10,5,1,,,,,
,,,,,,,,,,,2023-03-15_12h21.31.868,catalan_exp2,2022.1.4,Win32,15.00555205,,,space,5.5687,,,,,,target,penultimate,"""Aquest no és el meu número de telèfon"" —la descamina complagut.",descaminar,1,,,,,,,,,,,,,,0,11,11,2,1,,,,,
,,,,,,,,,,,2023-03-15_12h21.31.868,catalan_exp2,2022.1.4,Win32,15.00555205,,,space,5.0056,,,,,,target,ultimate,"""El president de l'estat està malalt"" —va disseminar prematura.",disseminar,1,,,,,,,,,,,,,,0,12,12,3,1,,,,,
,,,,,,,,,,,2023-03-15_12h21.31.868,catalan_exp2,2022.1.4,Win32,15.00555205,,,space,5.7346,,,,,,target,ultimate,"""No puc cuinar sense cremar el menjar"" —es va desanimar seriós.",desanimar,1,,,,,,,,,,,,,,0,13,13,9,1,,,,,
,,,,,,,,,,,2023-03-15_12h21.31.868,catalan_exp2,2022.1.4,Win32,15.00555205,,,,,,,,,,,,,,,,,,,,main_trial_block1.xlsx,,,,,,,,,,,,,0,1,1,0,1
