key_resp.keys,key_resp.rt,key_resp_2.keys,key_resp_2.rt,trials_2.thisRepN,trials_2.thisTrialN,trials_2.thisN,trials_2.thisIndex,trials_2.ran,trialspanish,participant ID,date,expName,psychopyVersion,OS,frameRate,key_resp_3.keys,key_resp_3.rt,key_resp_4.keys,key_resp_4.rt,trials_randomizer.thisRepN,trials_randomizer.thisTrialN,trials_randomizer.thisN,trials_randomizer.thisIndex,trials_randomizer.ran,fillertarget,stress,wordspanish,verbspanish,rand_12,block_randomizer.thisRepN,block_randomizer.thisTrialN,block_randomizer.thisN,block_randomizer.thisIndex,block_randomizer.ran,condsFile,key_resp_5.keys,key_resp_5.rt,mainTrialReps.thisRepN,mainTrialReps.thisTrialN,mainTrialReps.thisN,mainTrialReps.thisIndex,mainTrialReps.ran,trials_randomizer2.thisRepN,trials_randomizer2.thisTrialN,trials_randomizer2.thisN,trials_randomizer2.thisIndex,trials_randomizer2.ran,block_randomizer2.thisRepN,block_randomizer2.thisTrialN,block_randomizer2.thisN,block_randomizer2.thisIndex,block_randomizer2.ran
space,2513.9338,space,4.7366,0,0,0,0,1,"""Le regaló una camiseta a su sobrino"" —digo contento.",nde013,03-17-2023_13h09.38.817,spanish_exp2,2022.1.4,Win32,60.13229104,,,,,,,,,,,,,,,,,,,,,,,,,,,,,,,,,,,,,
,,space,4.1679,0,1,1,3,1,"""Te quiero mucho"" —suspiró contenta Teresa.",nde013,03-17-2023_13h09.38.817,spanish_exp2,2022.1.4,Win32,60.13229104,,,,,,,,,,,,,,,,,,,,,,,,,,,,,,,,,,,,,
,,space,3.8582,0,2,2,2,1,"""Me gustaría un café"" —pienso complacido.",nde013,03-17-2023_13h09.38.817,spanish_exp2,2022.1.4,Win32,60.13229104,,,,,,,,,,,,,,,,,,,,,,,,,,,,,,,,,,,,,
,,space,4.3088,0,3,3,1,1,"""Depende del clima"" —respondió claramente.",nde013,03-17-2023_13h09.38.817,spanish_exp2,2022.1.4,Win32,60.13229104,,,,,,,,,,,,,,,,,,,,,,,,,,,,,,,,,,,,,
,,,,,,,,,,nde013,03-17-2023_13h09.38.817,spanish_exp2,2022.1.4,Win32,60.13229104,space,3.3015,space,3.8609,0,0,0,10,1,target,ultimate,"""Tarjeta roja"" —los eliminó segura.",eliminar,2,,,,,,,,,,,,,,,,,,,,,,,
,,,,,,,,,,nde013,03-17-2023_13h09.38.817,spanish_exp2,2022.1.4,Win32,60.13229104,,,space,8.4045,0,1,1,1,1,target,penultimate,"""La masa del átomo es medible"" —determino complacida.",determinar,2,,,,,,,,,,,,,,,,,,,,,,,
,,,,,,,,,,nde013,03-17-2023_13h09.38.817,spanish_exp2,2022.1.4,Win32,60.13229104,,,space,7.9709,0,2,2,7,1,target,penultimate,"""No me gusta su conducta"" —les recrimino con intensidad.",recriminar,2,,,,,,,,,,,,,,,,,,,,,,,
,,,,,,,,,,nde013,03-17-2023_13h09.38.817,spanish_exp2,2022.1.4,Win32,60.13229104,,,space,4.8623,0,3,3,11,1,target,penultimate,"""Los Osvald, culpables"" —les incrimino seguro.",incriminar,2,,,,,,,,,,,,,,,,,,,,,,,
,,,,,,,,,,nde013,03-17-2023_13h09.38.817,spanish_exp2,2022.1.4,Win32,60.13229104,,,space,4.0109,0,4,4,5,1,target,penultimate,"""Estas son las luces nuevas"" —ilumino contenta.",iluminar,2,,,,,,,,,,,,,,,,,,,,,,,
,,,,,,,,,,nde013,03-17-2023_13h09.38.817,spanish_exp2,2022.1.4,Win32,60.13229104,,,space,11.5389,0,5,5,9,1,target,penultimate,"""No puedo estudiar matemáticas"" —me desanimo compungida.",desanimar,2,,,,,,,,,,,,,,,,,,,,,,,
,,,,,,,,,,nde013,03-17-2023_13h09.38.817,spanish_exp2,2022.1.4,Win32,60.13229104,,,space,5.2741,0,6,6,8,1,target,ultimate,"""Este es más fuerte"" —discriminó tímida.",discriminar,2,,,,,,,,,,,,,,,,,,,,,,,
,,,,,,,,,,nde013,03-17-2023_13h09.38.817,spanish_exp2,2022.1.4,Win32,60.13229104,,,space,6.9462,0,7,7,13,1,target,penultimate,"""Se llamará beta"" —lo denomino complacido.",denominar,2,,,,,,,,,,,,,,,,,,,,,,,
,,,,,,,,,,nde013,03-17-2023_13h09.38.817,spanish_exp2,2022.1.4,Win32,60.13229104,,,space,5.6969,0,8,8,3,1,target,penultimate,"""La directora Pérez renuncia a su cargo"" —disemino compungido.",diseminar,2,,,,,,,,,,,,,,,,,,,,,,,
,,,,,,,,,,nde013,03-17-2023_13h09.38.817,spanish_exp2,2022.1.4,Win32,60.13229104,,,space,4.3611,0,9,9,6,1,target,ultimate,"""Lee estos artículos"" —le encaminó con ilusión.",encaminar,2,,,,,,,,,,,,,,,,,,,,,,,
,,,,,,,,,,nde013,03-17-2023_13h09.38.817,spanish_exp2,2022.1.4,Win32,60.13229104,,,space,6.7985,0,10,10,12,1,target,ultimate,"""Este insecticida es muy eficaz"" —exterminó complacida.",exterminar,2,,,,,,,,,,,,,,,,,,,,,,,
,,,,,,,,,,nde013,03-17-2023_13h09.38.817,spanish_exp2,2022.1.4,Win32,60.13229104,,,space,7.7125,0,11,11,0,1,target,ultimate,"""No me gustan las corridas"" —abominó con certeza.",abominar,2,,,,,,,,,,,,,,,,,,,,,,,
,,,,,,,,,,nde013,03-17-2023_13h09.38.817,spanish_exp2,2022.1.4,Win32,60.13229104,,,space,5.2214,0,12,12,4,1,target,ultimate,"""Desarrollen esta ecuación"" —los examinó seriamente.",examinar,2,,,,,,,,,,,,,,,,,,,,,,,
,,,,,,,,,,nde013,03-17-2023_13h09.38.817,spanish_exp2,2022.1.4,Win32,60.13229104,,,space,5.1617,0,13,13,2,1,target,ultimate,"""Este es el camino más corto"" —la descaminó complacido.",descaminar,2,,,,,,,,,,,,,,,,,,,,,,,
,,,,,,,,,,nde013,03-17-2023_13h09.38.817,spanish_exp2,2022.1.4,Win32,60.13229104,,,,,,,,,,,,,,,0,0,0,1,1,main_trial_block2.xlsx,,,,,,,,,,,,,,,,,
,,,,,,,,,,nde013,03-17-2023_13h09.38.817,spanish_exp2,2022.1.4,Win32,60.13229104,,,space,4.3676,0,0,0,11,1,target,ultimate,"""Entraron sin pedir permiso"" —les incriminó seguro.",incriminar,1,,,,,,,,,,,,,,,,,,,,,,,
,,,,,,,,,,nde013,03-17-2023_13h09.38.817,spanish_exp2,2022.1.4,Win32,60.13229104,,,space,5.3691,0,1,1,9,1,target,ultimate,"""No puedo cocinar sin quemar la comida"" —me desanimó compungida.",desanimar,1,,,,,,,,,,,,,,,,,,,,,,,
,,,,,,,,,,nde013,03-17-2023_13h09.38.817,spanish_exp2,2022.1.4,Win32,60.13229104,,,space,6.5864,0,2,2,7,1,target,ultimate,"""Me robaron"" —les recriminó con intensidad.",recriminar,1,,,,,,,,,,,,,,,,,,,,,,,
,,,,,,,,,,nde013,03-17-2023_13h09.38.817,spanish_exp2,2022.1.4,Win32,60.13229104,,,space,4.4017,0,3,3,8,1,target,penultimate,"""Este tiene menos azúcar"" —discrimino tímida.",discriminar,1,,,,,,,,,,,,,,,,,,,,,,,
,,,,,,,,,,nde013,03-17-2023_13h09.38.817,spanish_exp2,2022.1.4,Win32,60.13229104,,,space,4.5261,0,4,4,5,1,target,ultimate,"""Compré esta lámpara ayer"" —iluminó contenta.",iluminar,1,,,,,,,,,,,,,,,,,,,,,,,
,,,,,,,,,,nde013,03-17-2023_13h09.38.817,spanish_exp2,2022.1.4,Win32,60.13229104,,,space,4.777,0,5,5,0,1,target,penultimate,"""No me gusta el té de manzanilla"" —abomino con certeza.",abominar,1,,,,,,,,,,,,,,,,,,,,,,,
,,,,,,,,,,nde013,03-17-2023_13h09.38.817,spanish_exp2,2022.1.4,Win32,60.13229104,,,space,5.1319,0,6,6,2,1,target,penultimate,"""Este no es mi número de teléfono"" —la descamino complacido.",descaminar,1,,,,,,,,,,,,,,,,,,,,,,,
,,,,,,,,,,nde013,03-17-2023_13h09.38.817,spanish_exp2,2022.1.4,Win32,60.13229104,,,space,6.2964,0,7,7,1,1,target,ultimate,"""Con la lluvia el viento es muy fuerte"" —determinó complacida.",determinar,1,,,,,,,,,,,,,,,,,,,,,,,
,,,,,,,,,,nde013,03-17-2023_13h09.38.817,spanish_exp2,2022.1.4,Win32,60.13229104,,,space,4.2185,0,8,8,12,1,target,penultimate,"""No habrá más cucarachas"" —extermino complacida.",exterminar,1,,,,,,,,,,,,,,,,,,,,,,,
,,,,,,,,,,nde013,03-17-2023_13h09.38.817,spanish_exp2,2022.1.4,Win32,60.13229104,,,space,8.8687,0,9,9,10,1,target,penultimate,"""No son necesarios"" —los elimino segura.",eliminar,1,,,,,,,,,,,,,,,,,,,,,,,
,,,,,,,,,,nde013,03-17-2023_13h09.38.817,spanish_exp2,2022.1.4,Win32,60.13229104,,,space,5.4455,0,10,10,6,1,target,penultimate,"""Confirma la cita para mañana"" —le encamino con ilusión. ",encaminar,1,,,,,,,,,,,,,,,,,,,,,,,
,,,,,,,,,,nde013,03-17-2023_13h09.38.817,spanish_exp2,2022.1.4,Win32,60.13229104,,,space,5.6113,0,11,11,3,1,target,ultimate,"""El presidente del estado se encuentra enfermo"" —diseminó compungido.",diseminar,1,,,,,,,,,,,,,,,,,,,,,,,
,,,,,,,,,,nde013,03-17-2023_13h09.38.817,spanish_exp2,2022.1.4,Win32,60.13229104,,,space,17.6232,0,12,12,13,1,target,ultimate,"""Retrato de un hombre triste"" —lo denominó complacido. ",denominar,1,,,,,,,,,,,,,,,,,,,,,,,
,,,,,,,,,,nde013,03-17-2023_13h09.38.817,spanish_exp2,2022.1.4,Win32,60.13229104,,,space,4.4702,0,13,13,4,1,target,penultimate,"""Escriban la respuesta"" —los examino seriamente.",examinar,1,,,,,,,,,,,,,,,,,,,,,,,
,,,,,,,,,,nde013,03-17-2023_13h09.38.817,spanish_exp2,2022.1.4,Win32,60.13229104,,,,,,,,,,,,,,,0,1,1,0,1,main_trial_block1.xlsx,,,,,,,,,,,,,,,,,
,,,,,,,,,,nde013,03-17-2023_13h09.38.817,spanish_exp2,2022.1.4,Win32,60.13229104,,,,,,,,,,,,,,,,,,,,,space,32.6783,0,0,0,0,1,,,,,,,,,,
,,,,,,,,,,nde013,03-17-2023_13h09.38.817,spanish_exp2,2022.1.4,Win32,60.13229104,,,space,4.7018,0,0,0,1,1,target,penultimate,"""La masa del átomo es medible"" —determino complacida.",determinar,2,,,,,,,,,,,,,,,,,,,,,,,
,,,,,,,,,,nde013,03-17-2023_13h09.38.817,spanish_exp2,2022.1.4,Win32,60.13229104,,,space,4.1197,0,1,1,8,1,target,ultimate,"""Este es más fuerte"" —discriminó tímida.",discriminar,2,,,,,,,,,,,,,,,,,,,,,,,
,,,,,,,,,,nde013,03-17-2023_13h09.38.817,spanish_exp2,2022.1.4,Win32,60.13229104,,,space,3.9941,0,2,2,11,1,target,penultimate,"""Los Osvald, culpables"" —les incrimino seguro.",incriminar,2,,,,,,,,,,,,,,,,,,,,,,,
,,,,,,,,,,nde013,03-17-2023_13h09.38.817,spanish_exp2,2022.1.4,Win32,60.13229104,,,space,6.6343,0,3,3,13,1,target,penultimate,"""Se llamará beta"" —lo denomino complacido.",denominar,2,,,,,,,,,,,,,,,,,,,,,,,
,,,,,,,,,,nde013,03-17-2023_13h09.38.817,spanish_exp2,2022.1.4,Win32,60.13229104,,,space,4.8286,0,4,4,12,1,target,ultimate,"""Este insecticida es muy eficaz"" —exterminó complacida.",exterminar,2,,,,,,,,,,,,,,,,,,,,,,,
,,,,,,,,,,nde013,03-17-2023_13h09.38.817,spanish_exp2,2022.1.4,Win32,60.13229104,,,space,4.7825,0,5,5,6,1,target,ultimate,"""Lee estos artículos"" —le encaminó con ilusión.",encaminar,2,,,,,,,,,,,,,,,,,,,,,,,
,,,,,,,,,,nde013,03-17-2023_13h09.38.817,spanish_exp2,2022.1.4,Win32,60.13229104,,,space,4.0437,0,6,6,0,1,target,ultimate,"""No me gustan las corridas"" —abominó con certeza.",abominar,2,,,,,,,,,,,,,,,,,,,,,,,
,,,,,,,,,,nde013,03-17-2023_13h09.38.817,spanish_exp2,2022.1.4,Win32,60.13229104,,,space,8.6999,0,7,7,2,1,target,ultimate,"""Este es el camino más corto"" —la descaminó complacido.",descaminar,2,,,,,,,,,,,,,,,,,,,,,,,
,,,,,,,,,,nde013,03-17-2023_13h09.38.817,spanish_exp2,2022.1.4,Win32,60.13229104,,,space,5.6381,0,8,8,3,1,target,penultimate,"""La directora Pérez renuncia a su cargo"" —disemino compungido.",diseminar,2,,,,,,,,,,,,,,,,,,,,,,,
,,,,,,,,,,nde013,03-17-2023_13h09.38.817,spanish_exp2,2022.1.4,Win32,60.13229104,,,space,4.4217,0,9,9,4,1,target,ultimate,"""Desarrollen esta ecuación"" —los examinó seriamente.",examinar,2,,,,,,,,,,,,,,,,,,,,,,,
,,,,,,,,,,nde013,03-17-2023_13h09.38.817,spanish_exp2,2022.1.4,Win32,60.13229104,,,space,4.6382,0,10,10,5,1,target,penultimate,"""Estas son las luces nuevas"" —ilumino contenta.",iluminar,2,,,,,,,,,,,,,,,,,,,,,,,
,,,,,,,,,,nde013,03-17-2023_13h09.38.817,spanish_exp2,2022.1.4,Win32,60.13229104,,,space,5.6867,0,11,11,9,1,target,penultimate,"""No puedo estudiar matemáticas"" —me desanimo compungida.",desanimar,2,,,,,,,,,,,,,,,,,,,,,,,
,,,,,,,,,,nde013,03-17-2023_13h09.38.817,spanish_exp2,2022.1.4,Win32,60.13229104,,,space,6.2126,0,12,12,7,1,target,penultimate,"""No me gusta su conducta"" —les recrimino con intensidad.",recriminar,2,,,,,,,,,,,,,,,,,,,,,,,
,,,,,,,,,,nde013,03-17-2023_13h09.38.817,spanish_exp2,2022.1.4,Win32,60.13229104,,,space,3.9733,0,13,13,10,1,target,ultimate,"""Tarjeta roja"" —los eliminó segura.",eliminar,2,,,,,,,,,,,,,,,,,,,,,,,
,,,,,,,,,,nde013,03-17-2023_13h09.38.817,spanish_exp2,2022.1.4,Win32,60.13229104,,,,,,,,,,,,,,,0,0,0,1,1,main_trial_block2.xlsx,,,,,,,,,,,,,,,,,
,,,,,,,,,,nde013,03-17-2023_13h09.38.817,spanish_exp2,2022.1.4,Win32,60.13229104,,,space,4.729,0,0,0,4,1,target,penultimate,"""Escriban la respuesta"" —los examino seriamente.",examinar,1,,,,,,,,,,,,,,,,,,,,,,,
,,,,,,,,,,nde013,03-17-2023_13h09.38.817,spanish_exp2,2022.1.4,Win32,60.13229104,,,space,4.5384,0,1,1,6,1,target,penultimate,"""Confirma la cita para mañana"" —le encamino con ilusión. ",encaminar,1,,,,,,,,,,,,,,,,,,,,,,,
,,,,,,,,,,nde013,03-17-2023_13h09.38.817,spanish_exp2,2022.1.4,Win32,60.13229104,,,space,4.9146,0,2,2,9,1,target,ultimate,"""No puedo cocinar sin quemar la comida"" —me desanimó compungida.",desanimar,1,,,,,,,,,,,,,,,,,,,,,,,
,,,,,,,,,,nde013,03-17-2023_13h09.38.817,spanish_exp2,2022.1.4,Win32,60.13229104,,,space,4.2894,0,3,3,12,1,target,penultimate,"""No habrá más cucarachas"" —extermino complacida.",exterminar,1,,,,,,,,,,,,,,,,,,,,,,,
,,,,,,,,,,nde013,03-17-2023_13h09.38.817,spanish_exp2,2022.1.4,Win32,60.13229104,,,space,5.6463,0,4,4,3,1,target,ultimate,"""El presidente del estado se encuentra enfermo"" —diseminó compungido.",diseminar,1,,,,,,,,,,,,,,,,,,,,,,,
,,,,,,,,,,nde013,03-17-2023_13h09.38.817,spanish_exp2,2022.1.4,Win32,60.13229104,,,space,3.8526,0,5,5,10,1,target,penultimate,"""No son necesarios"" —los elimino segura.",eliminar,1,,,,,,,,,,,,,,,,,,,,,,,
,,,,,,,,,,nde013,03-17-2023_13h09.38.817,spanish_exp2,2022.1.4,Win32,60.13229104,,,space,9.5459,0,6,6,7,1,target,ultimate,"""Me robaron"" —les recriminó con intensidad.",recriminar,1,,,,,,,,,,,,,,,,,,,,,,,
,,,,,,,,,,nde013,03-17-2023_13h09.38.817,spanish_exp2,2022.1.4,Win32,60.13229104,,,space,4.639,0,7,7,11,1,target,ultimate,"""Entraron sin pedir permiso"" —les incriminó seguro.",incriminar,1,,,,,,,,,,,,,,,,,,,,,,,
,,,,,,,,,,nde013,03-17-2023_13h09.38.817,spanish_exp2,2022.1.4,Win32,60.13229104,,,space,4.09,0,8,8,8,1,target,penultimate,"""Este tiene menos azúcar"" —discrimino tímida.",discriminar,1,,,,,,,,,,,,,,,,,,,,,,,
,,,,,,,,,,nde013,03-17-2023_13h09.38.817,spanish_exp2,2022.1.4,Win32,60.13229104,,,space,8.0985,0,9,9,13,1,target,ultimate,"""Retrato de un hombre triste"" —lo denominó complacido. ",denominar,1,,,,,,,,,,,,,,,,,,,,,,,
,,,,,,,,,,nde013,03-17-2023_13h09.38.817,spanish_exp2,2022.1.4,Win32,60.13229104,,,space,4.0635,0,10,10,5,1,target,ultimate,"""Compré esta lámpara ayer"" —iluminó contenta.",iluminar,1,,,,,,,,,,,,,,,,,,,,,,,
,,,,,,,,,,nde013,03-17-2023_13h09.38.817,spanish_exp2,2022.1.4,Win32,60.13229104,,,space,5.0341,0,11,11,1,1,target,ultimate,"""Con la lluvia el viento es muy fuerte"" —determinó complacida.",determinar,1,,,,,,,,,,,,,,,,,,,,,,,
,,,,,,,,,,nde013,03-17-2023_13h09.38.817,spanish_exp2,2022.1.4,Win32,60.13229104,,,space,4.7924,0,12,12,0,1,target,penultimate,"""No me gusta el té de manzanilla"" —abomino con certeza.",abominar,1,,,,,,,,,,,,,,,,,,,,,,,
,,,,,,,,,,nde013,03-17-2023_13h09.38.817,spanish_exp2,2022.1.4,Win32,60.13229104,,,space,4.6009,0,13,13,2,1,target,penultimate,"""Este no es mi número de teléfono"" —la descamino complacido.",descaminar,1,,,,,,,,,,,,,,,,,,,,,,,
,,,,,,,,,,nde013,03-17-2023_13h09.38.817,spanish_exp2,2022.1.4,Win32,60.13229104,,,,,,,,,,,,,,,0,1,1,0,1,main_trial_block1.xlsx,,,,,,,,,,,,,,,,,
,,,,,,,,,,nde013,03-17-2023_13h09.38.817,spanish_exp2,2022.1.4,Win32,60.13229104,,,,,,,,,,,,,,,,,,,,,space,32.0634,1,0,1,0,1,,,,,,,,,,
,,,,,,,,,,nde013,03-17-2023_13h09.38.817,spanish_exp2,2022.1.4,Win32,60.13229104,,,space,4.4389,,,,,,target,ultimate,"""No me gustan las corridas"" —abominó con certeza.",abominar,2,,,,,,,,,,,,,,0,0,0,0,1,,,,,
,,,,,,,,,,nde013,03-17-2023_13h09.38.817,spanish_exp2,2022.1.4,Win32,60.13229104,,,space,4.5899,,,,,,target,penultimate,"""No puedo estudiar matemáticas"" —me desanimo compungida.",desanimar,2,,,,,,,,,,,,,,0,1,1,9,1,,,,,
,,,,,,,,,,nde013,03-17-2023_13h09.38.817,spanish_exp2,2022.1.4,Win32,60.13229104,,,space,4.9383,,,,,,target,penultimate,"""No me gusta su conducta"" —les recrimino con intensidad.",recriminar,2,,,,,,,,,,,,,,0,2,2,7,1,,,,,
,,,,,,,,,,nde013,03-17-2023_13h09.38.817,spanish_exp2,2022.1.4,Win32,60.13229104,,,space,3.6622,,,,,,target,ultimate,"""Este es más fuerte"" —discriminó tímida.",discriminar,2,,,,,,,,,,,,,,0,3,3,8,1,,,,,
,,,,,,,,,,nde013,03-17-2023_13h09.38.817,spanish_exp2,2022.1.4,Win32,60.13229104,,,space,3.5276,,,,,,target,ultimate,"""Tarjeta roja"" —los eliminó segura.",eliminar,2,,,,,,,,,,,,,,0,4,4,10,1,,,,,
,,,,,,,,,,nde013,03-17-2023_13h09.38.817,spanish_exp2,2022.1.4,Win32,60.13229104,,,space,6.4165,,,,,,target,penultimate,"""Estas son las luces nuevas"" —ilumino contenta.",iluminar,2,,,,,,,,,,,,,,0,5,5,5,1,,,,,
,,,,,,,,,,nde013,03-17-2023_13h09.38.817,spanish_exp2,2022.1.4,Win32,60.13229104,,,space,5.092,,,,,,target,penultimate,"""Los Osvald, culpables"" —les incrimino seguro.",incriminar,2,,,,,,,,,,,,,,0,6,6,11,1,,,,,
,,,,,,,,,,nde013,03-17-2023_13h09.38.817,spanish_exp2,2022.1.4,Win32,60.13229104,,,space,4.3576,,,,,,target,ultimate,"""Desarrollen esta ecuación"" —los examinó seriamente.",examinar,2,,,,,,,,,,,,,,0,7,7,4,1,,,,,
,,,,,,,,,,nde013,03-17-2023_13h09.38.817,spanish_exp2,2022.1.4,Win32,60.13229104,,,space,4.6234,,,,,,target,ultimate,"""Este es el camino más corto"" —la descaminó complacido.",descaminar,2,,,,,,,,,,,,,,0,8,8,2,1,,,,,
,,,,,,,,,,nde013,03-17-2023_13h09.38.817,spanish_exp2,2022.1.4,Win32,60.13229104,,,space,4.7813,,,,,,target,penultimate,"""Se llamará beta"" —lo denomino complacido.",denominar,2,,,,,,,,,,,,,,0,9,9,13,1,,,,,
,,,,,,,,,,nde013,03-17-2023_13h09.38.817,spanish_exp2,2022.1.4,Win32,60.13229104,,,space,4.343,,,,,,target,ultimate,"""Lee estos artículos"" —le encaminó con ilusión.",encaminar,2,,,,,,,,,,,,,,0,10,10,6,1,,,,,
,,,,,,,,,,nde013,03-17-2023_13h09.38.817,spanish_exp2,2022.1.4,Win32,60.13229104,,,space,5.1381,,,,,,target,penultimate,"""La masa del átomo es medible"" —determino complacida.",determinar,2,,,,,,,,,,,,,,0,11,11,1,1,,,,,
,,,,,,,,,,nde013,03-17-2023_13h09.38.817,spanish_exp2,2022.1.4,Win32,60.13229104,,,space,6.0985,,,,,,target,penultimate,"""La directora Pérez renuncia a su cargo"" —disemino compungido.",diseminar,2,,,,,,,,,,,,,,0,12,12,3,1,,,,,
,,,,,,,,,,nde013,03-17-2023_13h09.38.817,spanish_exp2,2022.1.4,Win32,60.13229104,,,space,5.7035,,,,,,target,ultimate,"""Este insecticida es muy eficaz"" —exterminó complacida.",exterminar,2,,,,,,,,,,,,,,0,13,13,12,1,,,,,
,,,,,,,,,,nde013,03-17-2023_13h09.38.817,spanish_exp2,2022.1.4,Win32,60.13229104,,,,,,,,,,,,,,,,,,,,main_trial_block2.xlsx,,,,,,,,,,,,,0,0,0,1,1
,,,,,,,,,,nde013,03-17-2023_13h09.38.817,spanish_exp2,2022.1.4,Win32,60.13229104,,,space,5.7129,,,,,,target,ultimate,"""El presidente del estado se encuentra enfermo"" —diseminó compungido.",diseminar,1,,,,,,,,,,,,,,0,0,0,3,1,,,,,
,,,,,,,,,,nde013,03-17-2023_13h09.38.817,spanish_exp2,2022.1.4,Win32,60.13229104,,,space,4.3524,,,,,,target,ultimate,"""Me robaron"" —les recriminó con intensidad.",recriminar,1,,,,,,,,,,,,,,0,1,1,7,1,,,,,
,,,,,,,,,,nde013,03-17-2023_13h09.38.817,spanish_exp2,2022.1.4,Win32,60.13229104,,,space,4.6385,,,,,,target,ultimate,"""Entraron sin pedir permiso"" —les incriminó seguro.",incriminar,1,,,,,,,,,,,,,,0,2,2,11,1,,,,,
,,,,,,,,,,nde013,03-17-2023_13h09.38.817,spanish_exp2,2022.1.4,Win32,60.13229104,,,space,4.7714,,,,,,target,penultimate,"""No me gusta el té de manzanilla"" —abomino con certeza.",abominar,1,,,,,,,,,,,,,,0,3,3,0,1,,,,,
,,,,,,,,,,nde013,03-17-2023_13h09.38.817,spanish_exp2,2022.1.4,Win32,60.13229104,,,space,5.8368,,,,,,target,ultimate,"""Compré esta lámpara ayer"" —iluminó contenta.",iluminar,1,,,,,,,,,,,,,,0,4,4,5,1,,,,,
,,,,,,,,,,nde013,03-17-2023_13h09.38.817,spanish_exp2,2022.1.4,Win32,60.13229104,,,space,5.0482,,,,,,target,ultimate,"""Con la lluvia el viento es muy fuerte"" —determinó complacida.",determinar,1,,,,,,,,,,,,,,0,5,5,1,1,,,,,
,,,,,,,,,,nde013,03-17-2023_13h09.38.817,spanish_exp2,2022.1.4,Win32,60.13229104,,,space,6.1113,,,,,,target,penultimate,"""No habrá más cucarachas"" —extermino complacida.",exterminar,1,,,,,,,,,,,,,,0,6,6,12,1,,,,,
,,,,,,,,,,nde013,03-17-2023_13h09.38.817,spanish_exp2,2022.1.4,Win32,60.13229104,,,space,4.8041,,,,,,target,penultimate,"""Este no es mi número de teléfono"" —la descamino complacido.",descaminar,1,,,,,,,,,,,,,,0,7,7,2,1,,,,,
,,,,,,,,,,nde013,03-17-2023_13h09.38.817,spanish_exp2,2022.1.4,Win32,60.13229104,,,space,4.4946,,,,,,target,penultimate,"""Confirma la cita para mañana"" —le encamino con ilusión. ",encaminar,1,,,,,,,,,,,,,,0,8,8,6,1,,,,,
,,,,,,,,,,nde013,03-17-2023_13h09.38.817,spanish_exp2,2022.1.4,Win32,60.13229104,,,space,4.9832,,,,,,target,ultimate,"""No puedo cocinar sin quemar la comida"" —me desanimó compungida.",desanimar,1,,,,,,,,,,,,,,0,9,9,9,1,,,,,
,,,,,,,,,,nde013,03-17-2023_13h09.38.817,spanish_exp2,2022.1.4,Win32,60.13229104,,,space,7.4973,,,,,,target,ultimate,"""Retrato de un hombre triste"" —lo denominó complacido. ",denominar,1,,,,,,,,,,,,,,0,10,10,13,1,,,,,
,,,,,,,,,,nde013,03-17-2023_13h09.38.817,spanish_exp2,2022.1.4,Win32,60.13229104,,,space,4.3029,,,,,,target,penultimate,"""Este tiene menos azúcar"" —discrimino tímida.",discriminar,1,,,,,,,,,,,,,,0,11,11,8,1,,,,,
,,,,,,,,,,nde013,03-17-2023_13h09.38.817,spanish_exp2,2022.1.4,Win32,60.13229104,,,space,4.3592,,,,,,target,penultimate,"""Escriban la respuesta"" —los examino seriamente.",examinar,1,,,,,,,,,,,,,,0,12,12,4,1,,,,,
,,,,,,,,,,nde013,03-17-2023_13h09.38.817,spanish_exp2,2022.1.4,Win32,60.13229104,,,space,6.0699,,,,,,target,penultimate,"""No son necesarios"" —los elimino segura.",eliminar,1,,,,,,,,,,,,,,0,13,13,10,1,,,,,
,,,,,,,,,,nde013,03-17-2023_13h09.38.817,spanish_exp2,2022.1.4,Win32,60.13229104,,,,,,,,,,,,,,,,,,,,main_trial_block1.xlsx,,,,,,,,,,,,,0,1,1,0,1
