key_resp.keys,key_resp.rt,key_resp_2.keys,key_resp_2.rt,trials_2.thisRepN,trials_2.thisTrialN,trials_2.thisN,trials_2.thisIndex,trials_2.ran,trialspanish,participant ID,date,expName,psychopyVersion,OS,frameRate,key_resp_3.keys,key_resp_3.rt,key_resp_4.keys,key_resp_4.rt,trials_randomizer.thisRepN,trials_randomizer.thisTrialN,trials_randomizer.thisN,trials_randomizer.thisIndex,trials_randomizer.ran,fillertarget,stress,wordspanish,verbspanish,rand_12,block_randomizer.thisRepN,block_randomizer.thisTrialN,block_randomizer.thisN,block_randomizer.thisIndex,block_randomizer.ran,condsFile,key_resp_5.keys,key_resp_5.rt,mainTrialReps.thisRepN,mainTrialReps.thisTrialN,mainTrialReps.thisN,mainTrialReps.thisIndex,mainTrialReps.ran,trials_randomizer2.thisRepN,trials_randomizer2.thisTrialN,trials_randomizer2.thisN,trials_randomizer2.thisIndex,trials_randomizer2.ran,block_randomizer2.thisRepN,block_randomizer2.thisTrialN,block_randomizer2.thisN,block_randomizer2.thisIndex,block_randomizer2.ran
space,35.0664,space,10.0839,0,0,0,2,1,"""Me gustaría un café"" —pienso complacido.",nie059,2023-04-09_12h25.11.678,spanish_exp2,2022.1.4,MacIntel,120.0048002,,,,,,,,,,,,,,,,,,,,,,,,,,,,,,,,,,,,,
,,space,7.1931,0,1,1,0,1,"""Le regaló una camiseta a su sobrino"" —digo contento.",nie059,2023-04-09_12h25.11.678,spanish_exp2,2022.1.4,MacIntel,120.0048002,,,,,,,,,,,,,,,,,,,,,,,,,,,,,,,,,,,,,
,,space,5.4281,0,2,2,3,1,"""Te quiero mucho"" —suspiró contenta Teresa.",nie059,2023-04-09_12h25.11.678,spanish_exp2,2022.1.4,MacIntel,120.0048002,,,,,,,,,,,,,,,,,,,,,,,,,,,,,,,,,,,,,
,,space,5.1073,0,3,3,1,1,"""Depende del clima"" —respondió claramente.",nie059,2023-04-09_12h25.11.678,spanish_exp2,2022.1.4,MacIntel,120.0048002,,,,,,,,,,,,,,,,,,,,,,,,,,,,,,,,,,,,,
,,,,,,,,,,nie059,2023-04-09_12h25.11.678,spanish_exp2,2022.1.4,MacIntel,120.0048002,space,10.5596,space,6.2824,0,0,0,6,1,target,ultimate,"""Lee estos artículos"" —le encaminó con ilusión.",encaminar,2,,,,,,,,,,,,,,,,,,,,,,,
,,,,,,,,,,nie059,2023-04-09_12h25.11.678,spanish_exp2,2022.1.4,MacIntel,120.0048002,,,space,6.566,0,1,1,2,1,target,ultimate,"""Este es el camino más corto"" —la descaminó complacido.",descaminar,2,,,,,,,,,,,,,,,,,,,,,,,
,,,,,,,,,,nie059,2023-04-09_12h25.11.678,spanish_exp2,2022.1.4,MacIntel,120.0048002,,,space,7.03,0,2,2,4,1,target,ultimate,"""Desarrollen esta ecuación"" —los examinó seriamente.",examinar,2,,,,,,,,,,,,,,,,,,,,,,,
,,,,,,,,,,nie059,2023-04-09_12h25.11.678,spanish_exp2,2022.1.4,MacIntel,120.0048002,,,space,6.8603,0,3,3,0,1,target,ultimate,"""No me gustan las corridas"" —abominó con certeza.",abominar,2,,,,,,,,,,,,,,,,,,,,,,,
,,,,,,,,,,nie059,2023-04-09_12h25.11.678,spanish_exp2,2022.1.4,MacIntel,120.0048002,,,space,5.3491,0,4,4,8,1,target,ultimate,"""Este es más fuerte"" —discriminó tímida.",discriminar,2,,,,,,,,,,,,,,,,,,,,,,,
,,,,,,,,,,nie059,2023-04-09_12h25.11.678,spanish_exp2,2022.1.4,MacIntel,120.0048002,,,space,7.998,0,5,5,12,1,target,ultimate,"""Este insecticida es muy eficaz"" —exterminó complacida.",exterminar,2,,,,,,,,,,,,,,,,,,,,,,,
,,,,,,,,,,nie059,2023-04-09_12h25.11.678,spanish_exp2,2022.1.4,MacIntel,120.0048002,,,space,6.7119,0,6,6,7,1,target,penultimate,"""No me gusta su conducta"" —les recrimino con intensidad.",recriminar,2,,,,,,,,,,,,,,,,,,,,,,,
,,,,,,,,,,nie059,2023-04-09_12h25.11.678,spanish_exp2,2022.1.4,MacIntel,120.0048002,,,space,9.7969,0,7,7,3,1,target,penultimate,"""La directora Pérez renuncia a su cargo"" —disemino compungido.",diseminar,2,,,,,,,,,,,,,,,,,,,,,,,
,,,,,,,,,,nie059,2023-04-09_12h25.11.678,spanish_exp2,2022.1.4,MacIntel,120.0048002,,,space,8.5664,0,8,8,9,1,target,penultimate,"""No puedo estudiar matemáticas"" —me desanimo compungida.",desanimar,2,,,,,,,,,,,,,,,,,,,,,,,
,,,,,,,,,,nie059,2023-04-09_12h25.11.678,spanish_exp2,2022.1.4,MacIntel,120.0048002,,,space,6.3734,0,9,9,13,1,target,penultimate,"""Se llamará beta"" —lo denomino complacido.",denominar,2,,,,,,,,,,,,,,,,,,,,,,,
,,,,,,,,,,nie059,2023-04-09_12h25.11.678,spanish_exp2,2022.1.4,MacIntel,120.0048002,,,space,6.9406,0,10,10,11,1,target,penultimate,"""Los Osvald, culpables"" —les incrimino seguro.",incriminar,2,,,,,,,,,,,,,,,,,,,,,,,
,,,,,,,,,,nie059,2023-04-09_12h25.11.678,spanish_exp2,2022.1.4,MacIntel,120.0048002,,,space,6.5423,0,11,11,10,1,target,ultimate,"""Tarjeta roja"" —los eliminó segura.",eliminar,2,,,,,,,,,,,,,,,,,,,,,,,
,,,,,,,,,,nie059,2023-04-09_12h25.11.678,spanish_exp2,2022.1.4,MacIntel,120.0048002,,,space,6.6224,0,12,12,5,1,target,penultimate,"""Estas son las luces nuevas"" —ilumino contenta.",iluminar,2,,,,,,,,,,,,,,,,,,,,,,,
,,,,,,,,,,nie059,2023-04-09_12h25.11.678,spanish_exp2,2022.1.4,MacIntel,120.0048002,,,space,6.9993,0,13,13,1,1,target,penultimate,"""La masa del átomo es medible"" —determino complacida.",determinar,2,,,,,,,,,,,,,,,,,,,,,,,
,,,,,,,,,,nie059,2023-04-09_12h25.11.678,spanish_exp2,2022.1.4,MacIntel,120.0048002,,,,,,,,,,,,,,,0,0,0,1,1,main_trial_block2.xlsx,,,,,,,,,,,,,,,,,
,,,,,,,,,,nie059,2023-04-09_12h25.11.678,spanish_exp2,2022.1.4,MacIntel,120.0048002,,,space,6.3212,0,0,0,5,1,target,ultimate,"""Compré esta lámpara ayer"" —iluminó contenta.",iluminar,1,,,,,,,,,,,,,,,,,,,,,,,
,,,,,,,,,,nie059,2023-04-09_12h25.11.678,spanish_exp2,2022.1.4,MacIntel,120.0048002,,,space,6.7221,0,1,1,8,1,target,penultimate,"""Este tiene menos azúcar"" —discrimino tímida.",discriminar,1,,,,,,,,,,,,,,,,,,,,,,,
,,,,,,,,,,nie059,2023-04-09_12h25.11.678,spanish_exp2,2022.1.4,MacIntel,120.0048002,,,space,6.4225,0,2,2,12,1,target,penultimate,"""No habrá más cucarachas"" —extermino complacida.",exterminar,1,,,,,,,,,,,,,,,,,,,,,,,
,,,,,,,,,,nie059,2023-04-09_12h25.11.678,spanish_exp2,2022.1.4,MacIntel,120.0048002,,,space,6.7727,0,3,3,4,1,target,penultimate,"""Escriban la respuesta"" —los examino seriamente.",examinar,1,,,,,,,,,,,,,,,,,,,,,,,
,,,,,,,,,,nie059,2023-04-09_12h25.11.678,spanish_exp2,2022.1.4,MacIntel,120.0048002,,,space,7.8374,0,4,4,9,1,target,ultimate,"""No puedo cocinar sin quemar la comida"" —me desanimó compungida.",desanimar,1,,,,,,,,,,,,,,,,,,,,,,,
,,,,,,,,,,nie059,2023-04-09_12h25.11.678,spanish_exp2,2022.1.4,MacIntel,120.0048002,,,space,6.9309,0,5,5,2,1,target,penultimate,"""Este no es mi número de teléfono"" —la descamino complacido.",descaminar,1,,,,,,,,,,,,,,,,,,,,,,,
,,,,,,,,,,nie059,2023-04-09_12h25.11.678,spanish_exp2,2022.1.4,MacIntel,120.0048002,,,space,7.1455,0,6,6,1,1,target,ultimate,"""Con la lluvia el viento es muy fuerte"" —determinó complacida.",determinar,1,,,,,,,,,,,,,,,,,,,,,,,
,,,,,,,,,,nie059,2023-04-09_12h25.11.678,spanish_exp2,2022.1.4,MacIntel,120.0048002,,,space,8.5106,0,7,7,3,1,target,ultimate,"""El presidente del estado se encuentra enfermo"" —diseminó compungido.",diseminar,1,,,,,,,,,,,,,,,,,,,,,,,
,,,,,,,,,,nie059,2023-04-09_12h25.11.678,spanish_exp2,2022.1.4,MacIntel,120.0048002,,,space,6.381,0,8,8,7,1,target,ultimate,"""Me robaron"" —les recriminó con intensidad.",recriminar,1,,,,,,,,,,,,,,,,,,,,,,,
,,,,,,,,,,nie059,2023-04-09_12h25.11.678,spanish_exp2,2022.1.4,MacIntel,120.0048002,,,space,6.3185,0,9,9,6,1,target,penultimate,"""Confirma la cita para mañana"" —le encamino con ilusión. ",encaminar,1,,,,,,,,,,,,,,,,,,,,,,,
,,,,,,,,,,nie059,2023-04-09_12h25.11.678,spanish_exp2,2022.1.4,MacIntel,120.0048002,,,space,5.8503,0,10,10,0,1,target,penultimate,"""No me gusta el té de manzanilla"" —abomino con certeza.",abominar,1,,,,,,,,,,,,,,,,,,,,,,,
,,,,,,,,,,nie059,2023-04-09_12h25.11.678,spanish_exp2,2022.1.4,MacIntel,120.0048002,,,space,5.5995,0,11,11,10,1,target,penultimate,"""No son necesarios"" —los elimino segura.",eliminar,1,,,,,,,,,,,,,,,,,,,,,,,
,,,,,,,,,,nie059,2023-04-09_12h25.11.678,spanish_exp2,2022.1.4,MacIntel,120.0048002,,,space,6.3329,0,12,12,11,1,target,ultimate,"""Entraron sin pedir permiso"" —les incriminó seguro.",incriminar,1,,,,,,,,,,,,,,,,,,,,,,,
,,,,,,,,,,nie059,2023-04-09_12h25.11.678,spanish_exp2,2022.1.4,MacIntel,120.0048002,,,space,6.6783,0,13,13,13,1,target,ultimate,"""Retrato de un hombre triste"" —lo denominó complacido. ",denominar,1,,,,,,,,,,,,,,,,,,,,,,,
,,,,,,,,,,nie059,2023-04-09_12h25.11.678,spanish_exp2,2022.1.4,MacIntel,120.0048002,,,,,,,,,,,,,,,0,1,1,0,1,main_trial_block1.xlsx,,,,,,,,,,,,,,,,,
,,,,,,,,,,nie059,2023-04-09_12h25.11.678,spanish_exp2,2022.1.4,MacIntel,120.0048002,,,,,,,,,,,,,,,,,,,,,space,29.1908,0,0,0,0,1,,,,,,,,,,
,,,,,,,,,,nie059,2023-04-09_12h25.11.678,spanish_exp2,2022.1.4,MacIntel,120.0048002,,,space,6.8154,0,0,0,2,1,target,ultimate,"""Este es el camino más corto"" —la descaminó complacido.",descaminar,2,,,,,,,,,,,,,,,,,,,,,,,
,,,,,,,,,,nie059,2023-04-09_12h25.11.678,spanish_exp2,2022.1.4,MacIntel,120.0048002,,,space,6.0963,0,1,1,7,1,target,penultimate,"""No me gusta su conducta"" —les recrimino con intensidad.",recriminar,2,,,,,,,,,,,,,,,,,,,,,,,
,,,,,,,,,,nie059,2023-04-09_12h25.11.678,spanish_exp2,2022.1.4,MacIntel,120.0048002,,,space,7.6487,0,2,2,12,1,target,ultimate,"""Este insecticida es muy eficaz"" —exterminó complacida.",exterminar,2,,,,,,,,,,,,,,,,,,,,,,,
,,,,,,,,,,nie059,2023-04-09_12h25.11.678,spanish_exp2,2022.1.4,MacIntel,120.0048002,,,space,5.6412,0,3,3,8,1,target,ultimate,"""Este es más fuerte"" —discriminó tímida.",discriminar,2,,,,,,,,,,,,,,,,,,,,,,,
,,,,,,,,,,nie059,2023-04-09_12h25.11.678,spanish_exp2,2022.1.4,MacIntel,120.0048002,,,space,6.0831,0,4,4,6,1,target,ultimate,"""Lee estos artículos"" —le encaminó con ilusión.",encaminar,2,,,,,,,,,,,,,,,,,,,,,,,
,,,,,,,,,,nie059,2023-04-09_12h25.11.678,spanish_exp2,2022.1.4,MacIntel,120.0048002,,,space,7.2103,0,5,5,4,1,target,ultimate,"""Desarrollen esta ecuación"" —los examinó seriamente.",examinar,2,,,,,,,,,,,,,,,,,,,,,,,
,,,,,,,,,,nie059,2023-04-09_12h25.11.678,spanish_exp2,2022.1.4,MacIntel,120.0048002,,,space,5.4856,0,6,6,0,1,target,ultimate,"""No me gustan las corridas"" —abominó con certeza.",abominar,2,,,,,,,,,,,,,,,,,,,,,,,
,,,,,,,,,,nie059,2023-04-09_12h25.11.678,spanish_exp2,2022.1.4,MacIntel,120.0048002,,,space,5.7246,0,7,7,5,1,target,penultimate,"""Estas son las luces nuevas"" —ilumino contenta.",iluminar,2,,,,,,,,,,,,,,,,,,,,,,,
,,,,,,,,,,nie059,2023-04-09_12h25.11.678,spanish_exp2,2022.1.4,MacIntel,120.0048002,,,space,5.7289,0,8,8,10,1,target,ultimate,"""Tarjeta roja"" —los eliminó segura.",eliminar,2,,,,,,,,,,,,,,,,,,,,,,,
,,,,,,,,,,nie059,2023-04-09_12h25.11.678,spanish_exp2,2022.1.4,MacIntel,120.0048002,,,space,5.4909,0,9,9,13,1,target,penultimate,"""Se llamará beta"" —lo denomino complacido.",denominar,2,,,,,,,,,,,,,,,,,,,,,,,
,,,,,,,,,,nie059,2023-04-09_12h25.11.678,spanish_exp2,2022.1.4,MacIntel,120.0048002,,,space,8.2315,0,10,10,3,1,target,penultimate,"""La directora Pérez renuncia a su cargo"" —disemino compungido.",diseminar,2,,,,,,,,,,,,,,,,,,,,,,,
,,,,,,,,,,nie059,2023-04-09_12h25.11.678,spanish_exp2,2022.1.4,MacIntel,120.0048002,,,space,6.6787,0,11,11,9,1,target,penultimate,"""No puedo estudiar matemáticas"" —me desanimo compungida.",desanimar,2,,,,,,,,,,,,,,,,,,,,,,,
,,,,,,,,,,nie059,2023-04-09_12h25.11.678,spanish_exp2,2022.1.4,MacIntel,120.0048002,,,space,6.5504,0,12,12,11,1,target,penultimate,"""Los Osvald, culpables"" —les incrimino seguro.",incriminar,2,,,,,,,,,,,,,,,,,,,,,,,
,,,,,,,,,,nie059,2023-04-09_12h25.11.678,spanish_exp2,2022.1.4,MacIntel,120.0048002,,,space,6.4224,0,13,13,1,1,target,penultimate,"""La masa del átomo es medible"" —determino complacida.",determinar,2,,,,,,,,,,,,,,,,,,,,,,,
,,,,,,,,,,nie059,2023-04-09_12h25.11.678,spanish_exp2,2022.1.4,MacIntel,120.0048002,,,,,,,,,,,,,,,0,0,0,1,1,main_trial_block2.xlsx,,,,,,,,,,,,,,,,,
,,,,,,,,,,nie059,2023-04-09_12h25.11.678,spanish_exp2,2022.1.4,MacIntel,120.0048002,,,space,5.7334,0,0,0,7,1,target,ultimate,"""Me robaron"" —les recriminó con intensidad.",recriminar,1,,,,,,,,,,,,,,,,,,,,,,,
,,,,,,,,,,nie059,2023-04-09_12h25.11.678,spanish_exp2,2022.1.4,MacIntel,120.0048002,,,space,6.8371,0,1,1,6,1,target,penultimate,"""Confirma la cita para mañana"" —le encamino con ilusión. ",encaminar,1,,,,,,,,,,,,,,,,,,,,,,,
,,,,,,,,,,nie059,2023-04-09_12h25.11.678,spanish_exp2,2022.1.4,MacIntel,120.0048002,,,space,7.5856,0,2,2,3,1,target,ultimate,"""El presidente del estado se encuentra enfermo"" —diseminó compungido.",diseminar,1,,,,,,,,,,,,,,,,,,,,,,,
,,,,,,,,,,nie059,2023-04-09_12h25.11.678,spanish_exp2,2022.1.4,MacIntel,120.0048002,,,space,7.2264,0,3,3,8,1,target,penultimate,"""Este tiene menos azúcar"" —discrimino tímida.",discriminar,1,,,,,,,,,,,,,,,,,,,,,,,
,,,,,,,,,,nie059,2023-04-09_12h25.11.678,spanish_exp2,2022.1.4,MacIntel,120.0048002,,,space,6.5755,0,4,4,1,1,target,ultimate,"""Con la lluvia el viento es muy fuerte"" —determinó complacida.",determinar,1,,,,,,,,,,,,,,,,,,,,,,,
,,,,,,,,,,nie059,2023-04-09_12h25.11.678,spanish_exp2,2022.1.4,MacIntel,120.0048002,,,space,6.1556,0,5,5,4,1,target,penultimate,"""Escriban la respuesta"" —los examino seriamente.",examinar,1,,,,,,,,,,,,,,,,,,,,,,,
,,,,,,,,,,nie059,2023-04-09_12h25.11.678,spanish_exp2,2022.1.4,MacIntel,120.0048002,,,space,6.3134,0,6,6,13,1,target,ultimate,"""Retrato de un hombre triste"" —lo denominó complacido. ",denominar,1,,,,,,,,,,,,,,,,,,,,,,,
,,,,,,,,,,nie059,2023-04-09_12h25.11.678,spanish_exp2,2022.1.4,MacIntel,120.0048002,,,space,6.2519,0,7,7,11,1,target,ultimate,"""Entraron sin pedir permiso"" —les incriminó seguro.",incriminar,1,,,,,,,,,,,,,,,,,,,,,,,
,,,,,,,,,,nie059,2023-04-09_12h25.11.678,spanish_exp2,2022.1.4,MacIntel,120.0048002,,,space,8.5416,0,8,8,2,1,target,penultimate,"""Este no es mi número de teléfono"" —la descamino complacido.",descaminar,1,,,,,,,,,,,,,,,,,,,,,,,
,,,,,,,,,,nie059,2023-04-09_12h25.11.678,spanish_exp2,2022.1.4,MacIntel,120.0048002,,,space,7.142,0,9,9,9,1,target,ultimate,"""No puedo cocinar sin quemar la comida"" —me desanimó compungida.",desanimar,1,,,,,,,,,,,,,,,,,,,,,,,
,,,,,,,,,,nie059,2023-04-09_12h25.11.678,spanish_exp2,2022.1.4,MacIntel,120.0048002,,,space,6.0755,0,10,10,5,1,target,ultimate,"""Compré esta lámpara ayer"" —iluminó contenta.",iluminar,1,,,,,,,,,,,,,,,,,,,,,,,
,,,,,,,,,,nie059,2023-04-09_12h25.11.678,spanish_exp2,2022.1.4,MacIntel,120.0048002,,,space,5.479,0,11,11,10,1,target,penultimate,"""No son necesarios"" —los elimino segura.",eliminar,1,,,,,,,,,,,,,,,,,,,,,,,
,,,,,,,,,,nie059,2023-04-09_12h25.11.678,spanish_exp2,2022.1.4,MacIntel,120.0048002,,,space,6.3018,0,12,12,12,1,target,penultimate,"""No habrá más cucarachas"" —extermino complacida.",exterminar,1,,,,,,,,,,,,,,,,,,,,,,,
,,,,,,,,,,nie059,2023-04-09_12h25.11.678,spanish_exp2,2022.1.4,MacIntel,120.0048002,,,space,5.9697,0,13,13,0,1,target,penultimate,"""No me gusta el té de manzanilla"" —abomino con certeza.",abominar,1,,,,,,,,,,,,,,,,,,,,,,,
,,,,,,,,,,nie059,2023-04-09_12h25.11.678,spanish_exp2,2022.1.4,MacIntel,120.0048002,,,,,,,,,,,,,,,0,1,1,0,1,main_trial_block1.xlsx,,,,,,,,,,,,,,,,,
,,,,,,,,,,nie059,2023-04-09_12h25.11.678,spanish_exp2,2022.1.4,MacIntel,120.0048002,,,,,,,,,,,,,,,,,,,,,space,25.7877,1,0,1,0,1,,,,,,,,,,
,,,,,,,,,,nie059,2023-04-09_12h25.11.678,spanish_exp2,2022.1.4,MacIntel,120.0048002,,,space,6.9013,,,,,,target,penultimate,"""Los Osvald, culpables"" —les incrimino seguro.",incriminar,2,,,,,,,,,,,,,,0,0,0,11,1,,,,,
,,,,,,,,,,nie059,2023-04-09_12h25.11.678,spanish_exp2,2022.1.4,MacIntel,120.0048002,,,space,6.1851,,,,,,target,ultimate,"""No me gustan las corridas"" —abominó con certeza.",abominar,2,,,,,,,,,,,,,,0,1,1,0,1,,,,,
,,,,,,,,,,nie059,2023-04-09_12h25.11.678,spanish_exp2,2022.1.4,MacIntel,120.0048002,,,space,6.4629,,,,,,target,ultimate,"""Este es el camino más corto"" —la descaminó complacido.",descaminar,2,,,,,,,,,,,,,,0,2,2,2,1,,,,,
,,,,,,,,,,nie059,2023-04-09_12h25.11.678,spanish_exp2,2022.1.4,MacIntel,120.0048002,,,space,5.409,,,,,,target,ultimate,"""Este es más fuerte"" —discriminó tímida.",discriminar,2,,,,,,,,,,,,,,0,3,3,8,1,,,,,
,,,,,,,,,,nie059,2023-04-09_12h25.11.678,spanish_exp2,2022.1.4,MacIntel,120.0048002,,,space,6.8264,,,,,,target,penultimate,"""No puedo estudiar matemáticas"" —me desanimo compungida.",desanimar,2,,,,,,,,,,,,,,0,4,4,9,1,,,,,
,,,,,,,,,,nie059,2023-04-09_12h25.11.678,spanish_exp2,2022.1.4,MacIntel,120.0048002,,,space,5.2653,,,,,,target,ultimate,"""Tarjeta roja"" —los eliminó segura.",eliminar,2,,,,,,,,,,,,,,0,5,5,10,1,,,,,
,,,,,,,,,,nie059,2023-04-09_12h25.11.678,spanish_exp2,2022.1.4,MacIntel,120.0048002,,,space,5.0898,,,,,,target,penultimate,"""Estas son las luces nuevas"" —ilumino contenta.",iluminar,2,,,,,,,,,,,,,,0,6,6,5,1,,,,,
,,,,,,,,,,nie059,2023-04-09_12h25.11.678,spanish_exp2,2022.1.4,MacIntel,120.0048002,,,space,7.0518,,,,,,target,penultimate,"""No me gusta su conducta"" —les recrimino con intensidad.",recriminar,2,,,,,,,,,,,,,,0,7,7,7,1,,,,,
,,,,,,,,,,nie059,2023-04-09_12h25.11.678,spanish_exp2,2022.1.4,MacIntel,120.0048002,,,space,5.4539,,,,,,target,penultimate,"""Se llamará beta"" —lo denomino complacido.",denominar,2,,,,,,,,,,,,,,0,8,8,13,1,,,,,
,,,,,,,,,,nie059,2023-04-09_12h25.11.678,spanish_exp2,2022.1.4,MacIntel,120.0048002,,,space,7.0321,,,,,,target,ultimate,"""Desarrollen esta ecuación"" —los examinó seriamente.",examinar,2,,,,,,,,,,,,,,0,9,9,4,1,,,,,
,,,,,,,,,,nie059,2023-04-09_12h25.11.678,spanish_exp2,2022.1.4,MacIntel,120.0048002,,,space,6.5646,,,,,,target,penultimate,"""La masa del átomo es medible"" —determino complacida.",determinar,2,,,,,,,,,,,,,,0,10,10,1,1,,,,,
,,,,,,,,,,nie059,2023-04-09_12h25.11.678,spanish_exp2,2022.1.4,MacIntel,120.0048002,,,space,7.0614,,,,,,target,penultimate,"""La directora Pérez renuncia a su cargo"" —disemino compungido.",diseminar,2,,,,,,,,,,,,,,0,11,11,3,1,,,,,
,,,,,,,,,,nie059,2023-04-09_12h25.11.678,spanish_exp2,2022.1.4,MacIntel,120.0048002,,,space,6.5223,,,,,,target,ultimate,"""Este insecticida es muy eficaz"" —exterminó complacida.",exterminar,2,,,,,,,,,,,,,,0,12,12,12,1,,,,,
,,,,,,,,,,nie059,2023-04-09_12h25.11.678,spanish_exp2,2022.1.4,MacIntel,120.0048002,,,space,6.5073,,,,,,target,ultimate,"""Lee estos artículos"" —le encaminó con ilusión.",encaminar,2,,,,,,,,,,,,,,0,13,13,6,1,,,,,
,,,,,,,,,,nie059,2023-04-09_12h25.11.678,spanish_exp2,2022.1.4,MacIntel,120.0048002,,,,,,,,,,,,,,,,,,,,main_trial_block2.xlsx,,,,,,,,,,,,,0,0,0,1,1
,,,,,,,,,,nie059,2023-04-09_12h25.11.678,spanish_exp2,2022.1.4,MacIntel,120.0048002,,,space,5.924,,,,,,target,penultimate,"""Este tiene menos azúcar"" —discrimino tímida.",discriminar,1,,,,,,,,,,,,,,0,0,0,8,1,,,,,
,,,,,,,,,,nie059,2023-04-09_12h25.11.678,spanish_exp2,2022.1.4,MacIntel,120.0048002,,,space,6.3739,,,,,,target,penultimate,"""No me gusta el té de manzanilla"" —abomino con certeza.",abominar,1,,,,,,,,,,,,,,0,1,1,0,1,,,,,
,,,,,,,,,,nie059,2023-04-09_12h25.11.678,spanish_exp2,2022.1.4,MacIntel,120.0048002,,,space,6.8931,,,,,,target,ultimate,"""El presidente del estado se encuentra enfermo"" —diseminó compungido.",diseminar,1,,,,,,,,,,,,,,0,2,2,3,1,,,,,
,,,,,,,,,,nie059,2023-04-09_12h25.11.678,spanish_exp2,2022.1.4,MacIntel,120.0048002,,,space,5.4054,,,,,,target,penultimate,"""No son necesarios"" —los elimino segura.",eliminar,1,,,,,,,,,,,,,,0,3,3,10,1,,,,,
,,,,,,,,,,nie059,2023-04-09_12h25.11.678,spanish_exp2,2022.1.4,MacIntel,120.0048002,,,space,5.7643,,,,,,target,ultimate,"""Compré esta lámpara ayer"" —iluminó contenta.",iluminar,1,,,,,,,,,,,,,,0,4,4,5,1,,,,,
,,,,,,,,,,nie059,2023-04-09_12h25.11.678,spanish_exp2,2022.1.4,MacIntel,120.0048002,,,space,6.5939,,,,,,target,penultimate,"""Este no es mi número de teléfono"" —la descamino complacido.",descaminar,1,,,,,,,,,,,,,,0,5,5,2,1,,,,,
,,,,,,,,,,nie059,2023-04-09_12h25.11.678,spanish_exp2,2022.1.4,MacIntel,120.0048002,,,space,6.7996,,,,,,target,ultimate,"""Retrato de un hombre triste"" —lo denominó complacido. ",denominar,1,,,,,,,,,,,,,,0,6,6,13,1,,,,,
,,,,,,,,,,nie059,2023-04-09_12h25.11.678,spanish_exp2,2022.1.4,MacIntel,120.0048002,,,space,7.0247,,,,,,target,penultimate,"""Confirma la cita para mañana"" —le encamino con ilusión. ",encaminar,1,,,,,,,,,,,,,,0,7,7,6,1,,,,,
,,,,,,,,,,nie059,2023-04-09_12h25.11.678,spanish_exp2,2022.1.4,MacIntel,120.0048002,,,space,6.134,,,,,,target,ultimate,"""Entraron sin pedir permiso"" —les incriminó seguro.",incriminar,1,,,,,,,,,,,,,,0,8,8,11,1,,,,,
,,,,,,,,,,nie059,2023-04-09_12h25.11.678,spanish_exp2,2022.1.4,MacIntel,120.0048002,,,space,6.486,,,,,,target,ultimate,"""No puedo cocinar sin quemar la comida"" —me desanimó compungida.",desanimar,1,,,,,,,,,,,,,,0,9,9,9,1,,,,,
,,,,,,,,,,nie059,2023-04-09_12h25.11.678,spanish_exp2,2022.1.4,MacIntel,120.0048002,,,space,6.1087,,,,,,target,penultimate,"""No habrá más cucarachas"" —extermino complacida.",exterminar,1,,,,,,,,,,,,,,0,10,10,12,1,,,,,
,,,,,,,,,,nie059,2023-04-09_12h25.11.678,spanish_exp2,2022.1.4,MacIntel,120.0048002,,,space,6.729,,,,,,target,ultimate,"""Con la lluvia el viento es muy fuerte"" —determinó complacida.",determinar,1,,,,,,,,,,,,,,0,11,11,1,1,,,,,
,,,,,,,,,,nie059,2023-04-09_12h25.11.678,spanish_exp2,2022.1.4,MacIntel,120.0048002,,,space,5.4485,,,,,,target,ultimate,"""Me robaron"" —les recriminó con intensidad.",recriminar,1,,,,,,,,,,,,,,0,12,12,7,1,,,,,
,,,,,,,,,,nie059,2023-04-09_12h25.11.678,spanish_exp2,2022.1.4,MacIntel,120.0048002,,,space,6.5167,,,,,,target,penultimate,"""Escriban la respuesta"" —los examino seriamente.",examinar,1,,,,,,,,,,,,,,0,13,13,4,1,,,,,
,,,,,,,,,,nie059,2023-04-09_12h25.11.678,spanish_exp2,2022.1.4,MacIntel,120.0048002,,,,,,,,,,,,,,,,,,,,main_trial_block1.xlsx,,,,,,,,,,,,,0,1,1,0,1
