key_resp.keys,key_resp.rt,key_resp_2.keys,key_resp_2.rt,trials_2.thisRepN,trials_2.thisTrialN,trials_2.thisN,trials_2.thisIndex,trials_2.ran,trialcatalan,participant ID,date,expName,psychopyVersion,OS,frameRate,key_resp_3.keys,key_resp_3.rt,key_resp_4.keys,key_resp_4.rt,trial_randomizer.thisRepN,trial_randomizer.thisTrialN,trial_randomizer.thisN,trial_randomizer.thisIndex,trial_randomizer.ran,fillertarget,stress,wordcatalan,verbcatalan,rand_12,block_randomizer.thisRepN,block_randomizer.thisTrialN,block_randomizer.thisN,block_randomizer.thisIndex,block_randomizer.ran,condsFile,key_resp_5.keys,key_resp_5.rt,mainTrialRep.thisRepN,mainTrialRep.thisTrialN,mainTrialRep.thisN,mainTrialRep.thisIndex,mainTrialRep.ran,trial_randomizer2.thisRepN,trial_randomizer2.thisTrialN,trial_randomizer2.thisN,trial_randomizer2.thisIndex,trial_randomizer2.ran,block_randomizer2.thisRepN,block_randomizer2.thisTrialN,block_randomizer2.thisN,block_randomizer2.thisIndex,block_randomizer2.ran
space,19.3979,space,5.0586,0,0,0,1,1,"""Depèn de la temporada"" —explica seriòs.",,02-28-2023_13h28.48.504,catalan_exp2,2022.1.4,Win32,60.15761295,,,,,,,,,,,,,,,,,,,,,,,,,,,,,,,,,,,,,
,,space,5.5533,0,1,1,2,1,"""Voldria una mica de cafè"" —pensa complaguda.",,02-28-2023_13h28.48.504,catalan_exp2,2022.1.4,Win32,60.15761295,,,,,,,,,,,,,,,,,,,,,,,,,,,,,,,,,,,,,
,,space,6.631,0,2,2,0,1,"""Ha regalat un pastís al seu nebot"" —va pensar confiat.",,02-28-2023_13h28.48.504,catalan_exp2,2022.1.4,Win32,60.15761295,,,,,,,,,,,,,,,,,,,,,,,,,,,,,,,,,,,,,
,,space,4.3057,0,3,3,3,1,"""T'estimo molt"" —va sospirar content.",,02-28-2023_13h28.48.504,catalan_exp2,2022.1.4,Win32,60.15761295,,,,,,,,,,,,,,,,,,,,,,,,,,,,,,,,,,,,,
,,,,,,,,,,,02-28-2023_13h28.48.504,catalan_exp2,2022.1.4,Win32,60.15761295,space,4.9359,space,7.7344,0,0,0,11,1,target,ultimate,"""Van entrar sense demanar permís"" —les va incriminar confiat.",incriminar,1,,,,,,,,,,,,,,,,,,,,,,,
,,,,,,,,,,,02-28-2023_13h28.48.504,catalan_exp2,2022.1.4,Win32,60.15761295,,,space,7.428,0,1,1,12,1,target,penultimate,"""No hi haurà més bestioles"" —extermina complaguda.",exterminar,1,,,,,,,,,,,,,,,,,,,,,,,
,,,,,,,,,,,02-28-2023_13h28.48.504,catalan_exp2,2022.1.4,Win32,60.15761295,,,space,6.158,0,2,2,8,1,target,penultimate,"""Aquest té menys sucre"" —discrimina tímid.",discriminar,1,,,,,,,,,,,,,,,,,,,,,,,
,,,,,,,,,,,02-28-2023_13h28.48.504,catalan_exp2,2022.1.4,Win32,60.15761295,,,space,7.3691,0,3,3,6,1,target,penultimate,"""Confirmin la cita per demà"" —les encamina tímida.",encaminar,1,,,,,,,,,,,,,,,,,,,,,,,
,,,,,,,,,,,02-28-2023_13h28.48.504,catalan_exp2,2022.1.4,Win32,60.15761295,,,space,8.4279,0,4,4,2,1,target,penultimate,"""Aquest no és el meu número de telèfon"" —la descamina complagut.",descaminar,1,,,,,,,,,,,,,,,,,,,,,,,
,,,,,,,,,,,02-28-2023_13h28.48.504,catalan_exp2,2022.1.4,Win32,60.15761295,,,space,7.5691,0,5,5,0,1,target,penultimate,"""No m'agrada el te de camamilla"" —abomina plena.",abominar,1,,,,,,,,,,,,,,,,,,,,,,,
,,,,,,,,,,,02-28-2023_13h28.48.504,catalan_exp2,2022.1.4,Win32,60.15761295,,,space,6.5173,0,6,6,5,1,target,ultimate,"""Acabo de comprar aquest llum"" —va il·luminar content.",illuminar,1,,,,,,,,,,,,,,,,,,,,,,,
,,,,,,,,,,,02-28-2023_13h28.48.504,catalan_exp2,2022.1.4,Win32,60.15761295,,,space,7.0046,0,7,7,1,1,target,ultimate,"""Amb la pluja el vent és molt fort"" —va determinar complaguda.",determinar,1,,,,,,,,,,,,,,,,,,,,,,,
,,,,,,,,,,,02-28-2023_13h28.48.504,catalan_exp2,2022.1.4,Win32,60.15761295,,,space,6.191,0,8,8,7,1,target,ultimate,"""És culpa teva"" —li va recriminar seriosa.",recriminar,1,,,,,,,,,,,,,,,,,,,,,,,
,,,,,,,,,,,02-28-2023_13h28.48.504,catalan_exp2,2022.1.4,Win32,60.15761295,,,space,15.6279,0,9,9,9,1,target,ultimate,"""No puc cuinar sense cremar el menjar"" —es va desanimar seriós.",desanimar,1,,,,,,,,,,,,,,,,,,,,,,,
,,,,,,,,,,,02-28-2023_13h28.48.504,catalan_exp2,2022.1.4,Win32,60.15761295,,,space,6.4202,0,10,10,13,1,target,ultimate,"""Retrat d'un home trist"" —va denominar concret.",denominar,1,,,,,,,,,,,,,,,,,,,,,,,
,,,,,,,,,,,02-28-2023_13h28.48.504,catalan_exp2,2022.1.4,Win32,60.15761295,,,space,5.2539,0,11,11,10,1,target,penultimate,"""No són necessaris"" —elimina segura.",eliminar,1,,,,,,,,,,,,,,,,,,,,,,,
,,,,,,,,,,,02-28-2023_13h28.48.504,catalan_exp2,2022.1.4,Win32,60.15761295,,,space,7.4747,0,12,12,3,1,target,ultimate,"""El president de l'estat està malalt"" —va disseminar prematura.",disseminar,1,,,,,,,,,,,,,,,,,,,,,,,
,,,,,,,,,,,02-28-2023_13h28.48.504,catalan_exp2,2022.1.4,Win32,60.15761295,,,space,7.3039,0,13,13,4,1,target,penultimate,"""Escriguin la resposta"" —els examina clarament.",examinar,1,,,,,,,,,,,,,,,,,,,,,,,
,,,,,,,,,,,02-28-2023_13h28.48.504,catalan_exp2,2022.1.4,Win32,60.15761295,,,,,,,,,,,,,,,0,0,0,0,1,main_trial_block1.xlsx,,,,,,,,,,,,,,,,,
,,,,,,,,,,,02-28-2023_13h28.48.504,catalan_exp2,2022.1.4,Win32,60.15761295,,,space,7.1472,0,0,0,1,1,target,penultimate,"""La massa de l'àtom és mesurable"" —determina complaguda.",determinar,2,,,,,,,,,,,,,,,,,,,,,,,
,,,,,,,,,,,02-28-2023_13h28.48.504,catalan_exp2,2022.1.4,Win32,60.15761295,,,space,6.2506,0,1,1,13,1,target,penultimate,"""Aquest gen es diu beta"" —denomina concret.",denominar,2,,,,,,,,,,,,,,,,,,,,,,,
,,,,,,,,,,,02-28-2023_13h28.48.504,catalan_exp2,2022.1.4,Win32,60.15761295,,,space,6.6183,0,2,2,4,1,target,ultimate,"""Facin aquesta equació"" —els va examinar clarament.",examinar,2,,,,,,,,,,,,,,,,,,,,,,,
,,,,,,,,,,,02-28-2023_13h28.48.504,catalan_exp2,2022.1.4,Win32,60.15761295,,,space,6.5034,0,3,3,11,1,target,penultimate,"""Vostès són les culpables"" —les incrimina confiat.",incriminar,2,,,,,,,,,,,,,,,,,,,,,,,
,,,,,,,,,,,02-28-2023_13h28.48.504,catalan_exp2,2022.1.4,Win32,60.15761295,,,space,6.7851,0,4,4,0,1,target,ultimate,"""No m'agraden gens les curses de braus"" —va abominar plena.",abominar,2,,,,,,,,,,,,,,,,,,,,,,,
,,,,,,,,,,,02-28-2023_13h28.48.504,catalan_exp2,2022.1.4,Win32,60.15761295,,,space,5.331,0,5,5,9,1,target,penultimate,"""No passaré mai l'examen"" —es desanima seriós.",desanimar,2,,,,,,,,,,,,,,,,,,,,,,,
,,,,,,,,,,,02-28-2023_13h28.48.504,catalan_exp2,2022.1.4,Win32,60.15761295,,,space,7.0225,0,6,6,12,1,target,ultimate,"""Aquest verí va molt bé"" —va exterminar complaguda.",exterminar,2,,,,,,,,,,,,,,,,,,,,,,,
,,,,,,,,,,,02-28-2023_13h28.48.504,catalan_exp2,2022.1.4,Win32,60.15761295,,,space,6.5061,0,7,7,2,1,target,ultimate,"""Aquest és el camí més curt"" —la va descaminar complagut.",descaminar,2,,,,,,,,,,,,,,,,,,,,,,,
,,,,,,,,,,,02-28-2023_13h28.48.504,catalan_exp2,2022.1.4,Win32,60.15761295,,,space,7.8156,0,8,8,6,1,target,ultimate,"""Llegiu aquests articles"" —les va encaminar tímida.",encaminar,2,,,,,,,,,,,,,,,,,,,,,,,
,,,,,,,,,,,02-28-2023_13h28.48.504,catalan_exp2,2022.1.4,Win32,60.15761295,,,space,5.1298,0,9,9,5,1,target,penultimate,"""Bon Nadal a tots"" —il·lumina content.",illuminar,2,,,,,,,,,,,,,,,,,,,,,,,
,,,,,,,,,,,02-28-2023_13h28.48.504,catalan_exp2,2022.1.4,Win32,60.15761295,,,space,7.3859,0,10,10,7,1,target,penultimate,"""No m'agrada que em truquis"" —li recrimina seriosa.",recriminar,2,,,,,,,,,,,,,,,,,,,,,,,
,,,,,,,,,,,02-28-2023_13h28.48.504,catalan_exp2,2022.1.4,Win32,60.15761295,,,space,7.4977,0,11,11,10,1,target,ultimate,"""Érem a casa a l'hora del crim"" —va eliminar segura.",eliminar,2,,,,,,,,,,,,,,,,,,,,,,,
,,,,,,,,,,,02-28-2023_13h28.48.504,catalan_exp2,2022.1.4,Win32,60.15761295,,,space,6.6947,0,12,12,3,1,target,penultimate,"""La senyora Martí renuncia al seu càrrec"" —dissemina prematura.",disseminar,2,,,,,,,,,,,,,,,,,,,,,,,
,,,,,,,,,,,02-28-2023_13h28.48.504,catalan_exp2,2022.1.4,Win32,60.15761295,,,space,4.473,0,13,13,8,1,target,ultimate,"""Aquest és més fort"" —va discriminar tímid.",discriminar,2,,,,,,,,,,,,,,,,,,,,,,,
,,,,,,,,,,,02-28-2023_13h28.48.504,catalan_exp2,2022.1.4,Win32,60.15761295,,,,,,,,,,,,,,,0,1,1,1,1,main_trial_block2.xlsx,,,,,,,,,,,,,,,,,
,,,,,,,,,,,02-28-2023_13h28.48.504,catalan_exp2,2022.1.4,Win32,60.15761295,,,,,,,,,,,,,,,,,,,,,space,8.8455,0,0,0,0,1,,,,,,,,,,
,,,,,,,,,,,02-28-2023_13h28.48.504,catalan_exp2,2022.1.4,Win32,60.15761295,,,space,6.0539,0,0,0,3,1,target,ultimate,"""El president de l'estat està malalt"" —va disseminar prematura.",disseminar,1,,,,,,,,,,,,,,,,,,,,,,,
,,,,,,,,,,,02-28-2023_13h28.48.504,catalan_exp2,2022.1.4,Win32,60.15761295,,,space,6.506,0,1,1,12,1,target,penultimate,"""No hi haurà més bestioles"" —extermina complaguda.",exterminar,1,,,,,,,,,,,,,,,,,,,,,,,
,,,,,,,,,,,02-28-2023_13h28.48.504,catalan_exp2,2022.1.4,Win32,60.15761295,,,space,6.9734,0,2,2,6,1,target,penultimate,"""Confirmin la cita per demà"" —les encamina tímida.",encaminar,1,,,,,,,,,,,,,,,,,,,,,,,
,,,,,,,,,,,02-28-2023_13h28.48.504,catalan_exp2,2022.1.4,Win32,60.15761295,,,space,5.1739,0,3,3,8,1,target,penultimate,"""Aquest té menys sucre"" —discrimina tímid.",discriminar,1,,,,,,,,,,,,,,,,,,,,,,,
,,,,,,,,,,,02-28-2023_13h28.48.504,catalan_exp2,2022.1.4,Win32,60.15761295,,,space,6.5973,0,4,4,13,1,target,ultimate,"""Retrat d'un home trist"" —va denominar concret.",denominar,1,,,,,,,,,,,,,,,,,,,,,,,
,,,,,,,,,,,02-28-2023_13h28.48.504,catalan_exp2,2022.1.4,Win32,60.15761295,,,space,6.5895,0,5,5,11,1,target,ultimate,"""Van entrar sense demanar permís"" —les va incriminar confiat.",incriminar,1,,,,,,,,,,,,,,,,,,,,,,,
,,,,,,,,,,,02-28-2023_13h28.48.504,catalan_exp2,2022.1.4,Win32,60.15761295,,,space,5.5568,0,6,6,2,1,target,penultimate,"""Aquest no és el meu número de telèfon"" —la descamina complagut.",descaminar,1,,,,,,,,,,,,,,,,,,,,,,,
,,,,,,,,,,,02-28-2023_13h28.48.504,catalan_exp2,2022.1.4,Win32,60.15761295,,,space,6.819,0,7,7,0,1,target,penultimate,"""No m'agrada el te de camamilla"" —abomina plena.",abominar,1,,,,,,,,,,,,,,,,,,,,,,,
,,,,,,,,,,,02-28-2023_13h28.48.504,catalan_exp2,2022.1.4,Win32,60.15761295,,,space,5.6962,0,8,8,5,1,target,ultimate,"""Acabo de comprar aquest llum"" —va il·luminar content.",illuminar,1,,,,,,,,,,,,,,,,,,,,,,,
,,,,,,,,,,,02-28-2023_13h28.48.504,catalan_exp2,2022.1.4,Win32,60.15761295,,,space,7.5473,0,9,9,1,1,target,ultimate,"""Amb la pluja el vent és molt fort"" —va determinar complaguda.",determinar,1,,,,,,,,,,,,,,,,,,,,,,,
,,,,,,,,,,,02-28-2023_13h28.48.504,catalan_exp2,2022.1.4,Win32,60.15761295,,,space,4.9916,0,10,10,10,1,target,penultimate,"""No són necessaris"" —elimina segura.",eliminar,1,,,,,,,,,,,,,,,,,,,,,,,
,,,,,,,,,,,02-28-2023_13h28.48.504,catalan_exp2,2022.1.4,Win32,60.15761295,,,space,4.6032,0,11,11,7,1,target,ultimate,"""És culpa teva"" —li va recriminar seriosa.",recriminar,1,,,,,,,,,,,,,,,,,,,,,,,
,,,,,,,,,,,02-28-2023_13h28.48.504,catalan_exp2,2022.1.4,Win32,60.15761295,,,space,6.5583,0,12,12,4,1,target,penultimate,"""Escriguin la resposta"" —els examina clarament.",examinar,1,,,,,,,,,,,,,,,,,,,,,,,
,,,,,,,,,,,02-28-2023_13h28.48.504,catalan_exp2,2022.1.4,Win32,60.15761295,,,space,6.649,0,13,13,9,1,target,ultimate,"""No puc cuinar sense cremar el menjar"" —es va desanimar seriós.",desanimar,1,,,,,,,,,,,,,,,,,,,,,,,
,,,,,,,,,,,02-28-2023_13h28.48.504,catalan_exp2,2022.1.4,Win32,60.15761295,,,,,,,,,,,,,,,0,0,0,0,1,main_trial_block1.xlsx,,,,,,,,,,,,,,,,,
,,,,,,,,,,,02-28-2023_13h28.48.504,catalan_exp2,2022.1.4,Win32,60.15761295,,,space,7.4532,0,0,0,3,1,target,penultimate,"""La senyora Martí renuncia al seu càrrec"" —dissemina prematura.",disseminar,2,,,,,,,,,,,,,,,,,,,,,,,
,,,,,,,,,,,02-28-2023_13h28.48.504,catalan_exp2,2022.1.4,Win32,60.15761295,,,space,9.4126,0,1,1,10,1,target,ultimate,"""Érem a casa a l'hora del crim"" —va eliminar segura.",eliminar,2,,,,,,,,,,,,,,,,,,,,,,,
,,,,,,,,,,,02-28-2023_13h28.48.504,catalan_exp2,2022.1.4,Win32,60.15761295,,,space,6.4058,0,2,2,6,1,target,ultimate,"""Llegiu aquests articles"" —les va encaminar tímida.",encaminar,2,,,,,,,,,,,,,,,,,,,,,,,
,,,,,,,,,,,02-28-2023_13h28.48.504,catalan_exp2,2022.1.4,Win32,60.15761295,,,space,5.0577,0,3,3,11,1,target,penultimate,"""Vostès són les culpables"" —les incrimina confiat.",incriminar,2,,,,,,,,,,,,,,,,,,,,,,,
,,,,,,,,,,,02-28-2023_13h28.48.504,catalan_exp2,2022.1.4,Win32,60.15761295,,,space,6.2709,0,4,4,12,1,target,ultimate,"""Aquest verí va molt bé"" —va exterminar complaguda.",exterminar,2,,,,,,,,,,,,,,,,,,,,,,,
,,,,,,,,,,,02-28-2023_13h28.48.504,catalan_exp2,2022.1.4,Win32,60.15761295,,,space,4.5371,0,5,5,5,1,target,penultimate,"""Bon Nadal a tots"" —il·lumina content.",illuminar,2,,,,,,,,,,,,,,,,,,,,,,,
,,,,,,,,,,,02-28-2023_13h28.48.504,catalan_exp2,2022.1.4,Win32,60.15761295,,,space,7.5322,0,6,6,2,1,target,ultimate,"""Aquest és el camí més curt"" —la va descaminar complagut.",descaminar,2,,,,,,,,,,,,,,,,,,,,,,,
,,,,,,,,,,,02-28-2023_13h28.48.504,catalan_exp2,2022.1.4,Win32,60.15761295,,,space,6.2013,0,7,7,1,1,target,penultimate,"""La massa de l'àtom és mesurable"" —determina complaguda.",determinar,2,,,,,,,,,,,,,,,,,,,,,,,
,,,,,,,,,,,02-28-2023_13h28.48.504,catalan_exp2,2022.1.4,Win32,60.15761295,,,space,7.2427,0,8,8,4,1,target,ultimate,"""Facin aquesta equació"" —els va examinar clarament.",examinar,2,,,,,,,,,,,,,,,,,,,,,,,
,,,,,,,,,,,02-28-2023_13h28.48.504,catalan_exp2,2022.1.4,Win32,60.15761295,,,space,5.8197,0,9,9,13,1,target,penultimate,"""Aquest gen es diu beta"" —denomina concret.",denominar,2,,,,,,,,,,,,,,,,,,,,,,,
,,,,,,,,,,,02-28-2023_13h28.48.504,catalan_exp2,2022.1.4,Win32,60.15761295,,,space,6.901,0,10,10,0,1,target,ultimate,"""No m'agraden gens les curses de braus"" —va abominar plena.",abominar,2,,,,,,,,,,,,,,,,,,,,,,,
,,,,,,,,,,,02-28-2023_13h28.48.504,catalan_exp2,2022.1.4,Win32,60.15761295,,,space,6.6904,0,11,11,7,1,target,penultimate,"""No m'agrada que em truquis"" —li recrimina seriosa.",recriminar,2,,,,,,,,,,,,,,,,,,,,,,,
,,,,,,,,,,,02-28-2023_13h28.48.504,catalan_exp2,2022.1.4,Win32,60.15761295,,,space,5.7615,0,12,12,9,1,target,penultimate,"""No passaré mai l'examen"" —es desanima seriós.",desanimar,2,,,,,,,,,,,,,,,,,,,,,,,
,,,,,,,,,,,02-28-2023_13h28.48.504,catalan_exp2,2022.1.4,Win32,60.15761295,,,space,5.723,0,13,13,8,1,target,ultimate,"""Aquest és més fort"" —va discriminar tímid.",discriminar,2,,,,,,,,,,,,,,,,,,,,,,,
,,,,,,,,,,,02-28-2023_13h28.48.504,catalan_exp2,2022.1.4,Win32,60.15761295,,,,,,,,,,,,,,,0,1,1,1,1,main_trial_block2.xlsx,,,,,,,,,,,,,,,,,
,,,,,,,,,,,02-28-2023_13h28.48.504,catalan_exp2,2022.1.4,Win32,60.15761295,,,,,,,,,,,,,,,,,,,,,space,6.2048,1,0,1,0,1,,,,,,,,,,
,,,,,,,,,,,02-28-2023_13h28.48.504,catalan_exp2,2022.1.4,Win32,60.15761295,,,space,8.1086,,,,,,target,ultimate,"""No puc cuinar sense cremar el menjar"" —es va desanimar seriós.",desanimar,1,,,,,,,,,,,,,,0,0,0,9,1,,,,,
,,,,,,,,,,,02-28-2023_13h28.48.504,catalan_exp2,2022.1.4,Win32,60.15761295,,,space,6.3619,,,,,,target,ultimate,"""Van entrar sense demanar permís"" —les va incriminar confiat.",incriminar,1,,,,,,,,,,,,,,0,1,1,11,1,,,,,
,,,,,,,,,,,02-28-2023_13h28.48.504,catalan_exp2,2022.1.4,Win32,60.15761295,,,space,4.7076,,,,,,target,penultimate,"""No són necessaris"" —elimina segura.",eliminar,1,,,,,,,,,,,,,,0,2,2,10,1,,,,,
,,,,,,,,,,,02-28-2023_13h28.48.504,catalan_exp2,2022.1.4,Win32,60.15761295,,,space,6.3958,,,,,,target,ultimate,"""El president de l'estat està malalt"" —va disseminar prematura.",disseminar,1,,,,,,,,,,,,,,0,3,3,3,1,,,,,
,,,,,,,,,,,02-28-2023_13h28.48.504,catalan_exp2,2022.1.4,Win32,60.15761295,,,space,5.7206,,,,,,target,penultimate,"""No hi haurà més bestioles"" —extermina complaguda.",exterminar,1,,,,,,,,,,,,,,0,4,4,12,1,,,,,
,,,,,,,,,,,02-28-2023_13h28.48.504,catalan_exp2,2022.1.4,Win32,60.15761295,,,space,6.1832,,,,,,target,penultimate,"""Aquest no és el meu número de telèfon"" —la descamina complagut.",descaminar,1,,,,,,,,,,,,,,0,5,5,2,1,,,,,
,,,,,,,,,,,02-28-2023_13h28.48.504,catalan_exp2,2022.1.4,Win32,60.15761295,,,space,4.3635,,,,,,target,ultimate,"""És culpa teva"" —li va recriminar seriosa.",recriminar,1,,,,,,,,,,,,,,0,6,6,7,1,,,,,
,,,,,,,,,,,02-28-2023_13h28.48.504,catalan_exp2,2022.1.4,Win32,60.15761295,,,space,4.9998,,,,,,target,penultimate,"""No m'agrada el te de camamilla"" —abomina plena.",abominar,1,,,,,,,,,,,,,,0,7,7,0,1,,,,,
,,,,,,,,,,,02-28-2023_13h28.48.504,catalan_exp2,2022.1.4,Win32,60.15761295,,,space,5.8117,,,,,,target,penultimate,"""Confirmin la cita per demà"" —les encamina tímida.",encaminar,1,,,,,,,,,,,,,,0,8,8,6,1,,,,,
,,,,,,,,,,,02-28-2023_13h28.48.504,catalan_exp2,2022.1.4,Win32,60.15761295,,,space,5.3963,,,,,,target,ultimate,"""Acabo de comprar aquest llum"" —va il·luminar content.",illuminar,1,,,,,,,,,,,,,,0,9,9,5,1,,,,,
,,,,,,,,,,,02-28-2023_13h28.48.504,catalan_exp2,2022.1.4,Win32,60.15761295,,,space,7.3495,,,,,,target,ultimate,"""Amb la pluja el vent és molt fort"" —va determinar complaguda.",determinar,1,,,,,,,,,,,,,,0,10,10,1,1,,,,,
,,,,,,,,,,,02-28-2023_13h28.48.504,catalan_exp2,2022.1.4,Win32,60.15761295,,,space,6.1763,,,,,,target,penultimate,"""Escriguin la resposta"" —els examina clarament.",examinar,1,,,,,,,,,,,,,,0,11,11,4,1,,,,,
,,,,,,,,,,,02-28-2023_13h28.48.504,catalan_exp2,2022.1.4,Win32,60.15761295,,,space,6.8797,,,,,,target,ultimate,"""Retrat d'un home trist"" —va denominar concret.",denominar,1,,,,,,,,,,,,,,0,12,12,13,1,,,,,
,,,,,,,,,,,02-28-2023_13h28.48.504,catalan_exp2,2022.1.4,Win32,60.15761295,,,space,6.8458,,,,,,target,penultimate,"""Aquest té menys sucre"" —discrimina tímid.",discriminar,1,,,,,,,,,,,,,,0,13,13,8,1,,,,,
,,,,,,,,,,,02-28-2023_13h28.48.504,catalan_exp2,2022.1.4,Win32,60.15761295,,,,,,,,,,,,,,,,,,,,main_trial_block1.xlsx,,,,,,,,,,,,,0,0,0,0,1
,,,,,,,,,,,02-28-2023_13h28.48.504,catalan_exp2,2022.1.4,Win32,60.15761295,,,space,5.2661,,,,,,target,penultimate,"""No passaré mai l'examen"" —es desanima seriós.",desanimar,2,,,,,,,,,,,,,,0,0,0,9,1,,,,,
,,,,,,,,,,,02-28-2023_13h28.48.504,catalan_exp2,2022.1.4,Win32,60.15761295,,,space,6.7955,,,,,,target,ultimate,"""Llegiu aquests articles"" —les va encaminar tímida.",encaminar,2,,,,,,,,,,,,,,0,1,1,6,1,,,,,
,,,,,,,,,,,02-28-2023_13h28.48.504,catalan_exp2,2022.1.4,Win32,60.15761295,,,space,5.9879,,,,,,target,ultimate,"""No m'agraden gens les curses de braus"" —va abominar plena.",abominar,2,,,,,,,,,,,,,,0,2,2,0,1,,,,,
,,,,,,,,,,,02-28-2023_13h28.48.504,catalan_exp2,2022.1.4,Win32,60.15761295,,,space,3.9941,,,,,,target,penultimate,"""Bon Nadal a tots"" —il·lumina content.",illuminar,2,,,,,,,,,,,,,,0,3,3,5,1,,,,,
,,,,,,,,,,,02-28-2023_13h28.48.504,catalan_exp2,2022.1.4,Win32,60.15761295,,,space,5.3864,,,,,,target,ultimate,"""Facin aquesta equació"" —els va examinar clarament.",examinar,2,,,,,,,,,,,,,,0,4,4,4,1,,,,,
,,,,,,,,,,,02-28-2023_13h28.48.504,catalan_exp2,2022.1.4,Win32,60.15761295,,,space,6.39,,,,,,target,penultimate,"""La massa de l'àtom és mesurable"" —determina complaguda.",determinar,2,,,,,,,,,,,,,,0,5,5,1,1,,,,,
,,,,,,,,,,,02-28-2023_13h28.48.504,catalan_exp2,2022.1.4,Win32,60.15761295,,,space,6.0696,,,,,,target,penultimate,"""Aquest gen es diu beta"" —denomina concret.",denominar,2,,,,,,,,,,,,,,0,6,6,13,1,,,,,
,,,,,,,,,,,02-28-2023_13h28.48.504,catalan_exp2,2022.1.4,Win32,60.15761295,,,space,5.1774,,,,,,target,ultimate,"""Aquest és més fort"" —va discriminar tímid.",discriminar,2,,,,,,,,,,,,,,0,7,7,8,1,,,,,
,,,,,,,,,,,02-28-2023_13h28.48.504,catalan_exp2,2022.1.4,Win32,60.15761295,,,space,16.4449,,,,,,target,penultimate,"""La senyora Martí renuncia al seu càrrec"" —dissemina prematura.",disseminar,2,,,,,,,,,,,,,,0,8,8,3,1,,,,,
,,,,,,,,,,,02-28-2023_13h28.48.504,catalan_exp2,2022.1.4,Win32,60.15761295,,,space,7.1667,,,,,,target,penultimate,"""Vostès són les culpables"" —les incrimina confiat.",incriminar,2,,,,,,,,,,,,,,0,9,9,11,1,,,,,
,,,,,,,,,,,02-28-2023_13h28.48.504,catalan_exp2,2022.1.4,Win32,60.15761295,,,space,6.0482,,,,,,target,penultimate,"""No m'agrada que em truquis"" —li recrimina seriosa.",recriminar,2,,,,,,,,,,,,,,0,10,10,7,1,,,,,
,,,,,,,,,,,02-28-2023_13h28.48.504,catalan_exp2,2022.1.4,Win32,60.15761295,,,space,7.4858,,,,,,target,ultimate,"""Aquest és el camí més curt"" —la va descaminar complagut.",descaminar,2,,,,,,,,,,,,,,0,11,11,2,1,,,,,
,,,,,,,,,,,02-28-2023_13h28.48.504,catalan_exp2,2022.1.4,Win32,60.15761295,,,space,5.9938,,,,,,target,ultimate,"""Érem a casa a l'hora del crim"" —va eliminar segura.",eliminar,2,,,,,,,,,,,,,,0,12,12,10,1,,,,,
,,,,,,,,,,,02-28-2023_13h28.48.504,catalan_exp2,2022.1.4,Win32,60.15761295,,,space,6.7425,,,,,,target,ultimate,"""Aquest verí va molt bé"" —va exterminar complaguda.",exterminar,2,,,,,,,,,,,,,,0,13,13,12,1,,,,,
,,,,,,,,,,,02-28-2023_13h28.48.504,catalan_exp2,2022.1.4,Win32,60.15761295,,,,,,,,,,,,,,,,,,,,main_trial_block2.xlsx,,,,,,,,,,,,,0,1,1,1,1
