subjID,partID,list,block,trial,file1,filedur,loadtime,status,response,rt,response_binary,filename,formant,spectilt,duration,formant_center,spectilt_center,duration_center,lang_profile,pc1,pc2
263e3de6050126,dis022,2,1,0,https://d3uxfe7dw0hhy7.cloudfront.net/annie-helms/new_catalan/st5_dur2,481,20,OK,pondis,1404,pen,st5_dur2,3.0,5.0,2.0,0.0,2.0,-1.0,l1_eng,5.450197048775658,-0.13604800280042328
263e3de6050126,dis022,2,1,1,https://d3uxfe7dw0hhy7.cloudfront.net/annie-helms/new_catalan/st5_dur5,472,25,OK,pondis,748,pen,st5_dur5,3.0,5.0,5.0,0.0,2.0,2.0,l1_eng,5.450197048775658,-0.13604800280042328
263e3de6050126,dis022,2,1,2,https://d3uxfe7dw0hhy7.cloudfront.net/annie-helms/new_catalan/st5_dur3,479,15,OK,pondis,690,pen,st5_dur3,3.0,5.0,3.0,0.0,2.0,0.0,l1_eng,5.450197048775658,-0.13604800280042328
263e3de6050126,dis022,2,1,3,https://d3uxfe7dw0hhy7.cloudfront.net/annie-helms/new_catalan/F2_st2,471,10,OK,pondis,854,pen,F2_st2,2.0,2.0,3.0,-1.0,-1.0,0.0,l1_eng,5.450197048775658,-0.13604800280042328
263e3de6050126,dis022,2,1,4,https://d3uxfe7dw0hhy7.cloudfront.net/annie-helms/new_catalan/F4_dur2,482,25,OK,pondís,816,ult,F4_dur2,4.0,3.0,2.0,1.0,0.0,-1.0,l1_eng,5.450197048775658,-0.13604800280042328
263e3de6050126,dis022,2,1,5,https://d3uxfe7dw0hhy7.cloudfront.net/annie-helms/new_catalan/F1_dur1,494,20,OK,pondis,647,pen,F1_dur1,1.0,3.0,1.0,-2.0,0.0,-2.0,l1_eng,5.450197048775658,-0.13604800280042328
263e3de6050126,dis022,2,1,6,https://d3uxfe7dw0hhy7.cloudfront.net/annie-helms/new_catalan/F2_dur1,495,15,OK,pondis,626,pen,F2_dur1,2.0,3.0,1.0,-1.0,0.0,-2.0,l1_eng,5.450197048775658,-0.13604800280042328
263e3de6050126,dis022,2,1,7,https://d3uxfe7dw0hhy7.cloudfront.net/annie-helms/new_catalan/F1_dur4,485,20,OK,pondis,366,pen,F1_dur4,1.0,3.0,4.0,-2.0,0.0,1.0,l1_eng,5.450197048775658,-0.13604800280042328
263e3de6050126,dis022,2,1,8,https://d3uxfe7dw0hhy7.cloudfront.net/annie-helms/new_catalan/F4_st1,461,15,OK,pondís,755,ult,F4_st1,4.0,1.0,3.0,1.0,-2.0,0.0,l1_eng,5.450197048775658,-0.13604800280042328
263e3de6050126,dis022,2,1,9,https://d3uxfe7dw0hhy7.cloudfront.net/annie-helms/new_catalan/F4_st2,461,20,OK,pondis,954,pen,F4_st2,4.0,2.0,3.0,1.0,-1.0,0.0,l1_eng,5.450197048775658,-0.13604800280042328
263e3de6050126,dis022,2,1,10,https://d3uxfe7dw0hhy7.cloudfront.net/annie-helms/new_catalan/F2_st3,471,15,OK,pondis,820,pen,F2_st3,2.0,3.0,3.0,-1.0,0.0,0.0,l1_eng,5.450197048775658,-0.13604800280042328
263e3de6050126,dis022,2,1,11,https://d3uxfe7dw0hhy7.cloudfront.net/annie-helms/new_catalan/st3_dur1,484,15,OK,pondis,708,pen,st3_dur1,3.0,3.0,1.0,0.0,0.0,-2.0,l1_eng,5.450197048775658,-0.13604800280042328
263e3de6050126,dis022,2,1,12,https://d3uxfe7dw0hhy7.cloudfront.net/annie-helms/new_catalan/st4_dur1,484,15,OK,pondis,816,pen,st4_dur1,3.0,4.0,1.0,0.0,1.0,-2.0,l1_eng,5.450197048775658,-0.13604800280042328
263e3de6050126,dis022,2,1,13,https://d3uxfe7dw0hhy7.cloudfront.net/annie-helms/new_catalan/F2_st4,471,20,OK,pondis,775,pen,F2_st4,2.0,4.0,3.0,-1.0,1.0,0.0,l1_eng,5.450197048775658,-0.13604800280042328
263e3de6050126,dis022,2,1,14,https://d3uxfe7dw0hhy7.cloudfront.net/annie-helms/new_catalan/F1_st4,471,20,OK,pondis,1467,pen,F1_st4,1.0,4.0,3.0,-2.0,1.0,0.0,l1_eng,5.450197048775658,-0.13604800280042328
263e3de6050126,dis022,2,1,15,https://d3uxfe7dw0hhy7.cloudfront.net/annie-helms/new_catalan/F3_dur1,485,25,OK,pondis,683,pen,F3_dur1,3.0,3.0,1.0,0.0,0.0,-2.0,l1_eng,5.450197048775658,-0.13604800280042328
263e3de6050126,dis022,2,1,16,https://d3uxfe7dw0hhy7.cloudfront.net/annie-helms/new_catalan/F2_dur5,482,15,OK,pondis,1355,pen,F2_dur5,2.0,3.0,5.0,-1.0,0.0,2.0,l1_eng,5.450197048775658,-0.13604800280042328
263e3de6050126,dis022,2,1,17,https://d3uxfe7dw0hhy7.cloudfront.net/annie-helms/new_catalan/F2_st1,471,15,OK,pondis,1006,pen,F2_st1,2.0,1.0,3.0,-1.0,-2.0,0.0,l1_eng,5.450197048775658,-0.13604800280042328
263e3de6050126,dis022,2,1,18,https://d3uxfe7dw0hhy7.cloudfront.net/annie-helms/new_catalan/st3_dur3,479,15,OK,pondis,915,pen,st3_dur3,3.0,3.0,3.0,0.0,0.0,0.0,l1_eng,5.450197048775658,-0.13604800280042328
263e3de6050126,dis022,2,1,19,https://d3uxfe7dw0hhy7.cloudfront.net/annie-helms/new_catalan/F3_st5,461,20,OK,pondis,830,pen,F3_st5,3.0,5.0,3.0,0.0,2.0,0.0,l1_eng,5.450197048775658,-0.13604800280042328
263e3de6050126,dis022,2,1,20,https://d3uxfe7dw0hhy7.cloudfront.net/annie-helms/new_catalan/F4_dur5,472,15,OK,pondis,617,pen,F4_dur5,4.0,3.0,5.0,1.0,0.0,2.0,l1_eng,5.450197048775658,-0.13604800280042328
263e3de6050126,dis022,2,1,21,https://d3uxfe7dw0hhy7.cloudfront.net/annie-helms/new_catalan/F1_dur2,491,15,OK,pondís,875,ult,F1_dur2,1.0,3.0,2.0,-2.0,0.0,-1.0,l1_eng,5.450197048775658,-0.13604800280042328
263e3de6050126,dis022,2,1,22,https://d3uxfe7dw0hhy7.cloudfront.net/annie-helms/new_catalan/st1_dur4,475,15,OK,pondís,967,ult,st1_dur4,3.0,1.0,4.0,0.0,-2.0,1.0,l1_eng,5.450197048775658,-0.13604800280042328
263e3de6050126,dis022,2,1,23,https://d3uxfe7dw0hhy7.cloudfront.net/annie-helms/new_catalan/st5_dur4,475,15,OK,pondís,1047,ult,st5_dur4,3.0,5.0,4.0,0.0,2.0,1.0,l1_eng,5.450197048775658,-0.13604800280042328
263e3de6050126,dis022,2,1,24,https://d3uxfe7dw0hhy7.cloudfront.net/annie-helms/new_catalan/F4_dur3,479,20,OK,pondís,1171,ult,F4_dur3,4.0,3.0,3.0,1.0,0.0,0.0,l1_eng,5.450197048775658,-0.13604800280042328
263e3de6050126,dis022,2,1,25,https://d3uxfe7dw0hhy7.cloudfront.net/annie-helms/new_catalan/st2_dur5,472,20,OK,pondis,1613,pen,st2_dur5,3.0,2.0,5.0,0.0,-1.0,2.0,l1_eng,5.450197048775658,-0.13604800280042328
263e3de6050126,dis022,2,1,26,https://d3uxfe7dw0hhy7.cloudfront.net/annie-helms/new_catalan/F5_dur2,493,20,OK,pondis,1257,pen,F5_dur2,5.0,3.0,2.0,2.0,0.0,-1.0,l1_eng,5.450197048775658,-0.13604800280042328
263e3de6050126,dis022,2,1,27,https://d3uxfe7dw0hhy7.cloudfront.net/annie-helms/new_catalan/F1_dur5,482,20,OK,pondis,888,pen,F1_dur5,1.0,3.0,5.0,-2.0,0.0,2.0,l1_eng,5.450197048775658,-0.13604800280042328
263e3de6050126,dis022,2,1,28,https://d3uxfe7dw0hhy7.cloudfront.net/annie-helms/new_catalan/F2_dur3,489,20,OK,pondis,583,pen,F2_dur3,2.0,3.0,3.0,-1.0,0.0,0.0,l1_eng,5.450197048775658,-0.13604800280042328
263e3de6050126,dis022,2,1,29,https://d3uxfe7dw0hhy7.cloudfront.net/annie-helms/new_catalan/F2_dur2,492,20,OK,pondis,933,pen,F2_dur2,2.0,3.0,2.0,-1.0,0.0,-1.0,l1_eng,5.450197048775658,-0.13604800280042328
263e3de6050126,dis022,2,1,30,https://d3uxfe7dw0hhy7.cloudfront.net/annie-helms/new_catalan/st3_dur2,481,20,OK,pondis,1068,pen,st3_dur2,3.0,3.0,2.0,0.0,0.0,-1.0,l1_eng,5.450197048775658,-0.13604800280042328
263e3de6050126,dis022,2,1,31,https://d3uxfe7dw0hhy7.cloudfront.net/annie-helms/new_catalan/st4_dur4,475,20,OK,pondis,1296,pen,st4_dur4,3.0,4.0,4.0,0.0,1.0,1.0,l1_eng,5.450197048775658,-0.13604800280042328
263e3de6050126,dis022,2,1,32,https://d3uxfe7dw0hhy7.cloudfront.net/annie-helms/new_catalan/F3_st2,461,20,OK,pondis,688,pen,F3_st2,3.0,2.0,3.0,0.0,-1.0,0.0,l1_eng,5.450197048775658,-0.13604800280042328
263e3de6050126,dis022,2,1,33,https://d3uxfe7dw0hhy7.cloudfront.net/annie-helms/new_catalan/st2_dur3,479,20,OK,pondis,744,pen,st2_dur3,3.0,2.0,3.0,0.0,-1.0,0.0,l1_eng,5.450197048775658,-0.13604800280042328
263e3de6050126,dis022,2,1,34,https://d3uxfe7dw0hhy7.cloudfront.net/annie-helms/new_catalan/F1_st1,471,20,OK,pondís,717,ult,F1_st1,1.0,1.0,3.0,-2.0,-2.0,0.0,l1_eng,5.450197048775658,-0.13604800280042328
263e3de6050126,dis022,2,1,35,https://d3uxfe7dw0hhy7.cloudfront.net/annie-helms/new_catalan/F3_dur4,475,20,OK,pondís,953,ult,F3_dur4,3.0,3.0,4.0,0.0,0.0,1.0,l1_eng,5.450197048775658,-0.13604800280042328
263e3de6050126,dis022,2,1,36,https://d3uxfe7dw0hhy7.cloudfront.net/annie-helms/new_catalan/F5_st5,473,20,OK,pondís,797,ult,F5_st5,5.0,5.0,3.0,2.0,2.0,0.0,l1_eng,5.450197048775658,-0.13604800280042328
263e3de6050126,dis022,2,1,37,https://d3uxfe7dw0hhy7.cloudfront.net/annie-helms/new_catalan/F2_st5,471,15,OK,pondís,882,ult,F2_st5,2.0,5.0,3.0,-1.0,2.0,0.0,l1_eng,5.450197048775658,-0.13604800280042328
263e3de6050126,dis022,2,1,38,https://d3uxfe7dw0hhy7.cloudfront.net/annie-helms/new_catalan/F5_dur4,487,20,OK,pondís,734,ult,F5_dur4,5.0,3.0,4.0,2.0,0.0,1.0,l1_eng,5.450197048775658,-0.13604800280042328
263e3de6050126,dis022,2,1,39,https://d3uxfe7dw0hhy7.cloudfront.net/annie-helms/new_catalan/st4_dur3,479,15,OK,pondís,754,ult,st4_dur3,3.0,4.0,3.0,0.0,1.0,0.0,l1_eng,5.450197048775658,-0.13604800280042328
263e3de6050126,dis022,2,1,40,https://d3uxfe7dw0hhy7.cloudfront.net/annie-helms/new_catalan/st2_dur1,484,15,OK,pondis,1249,pen,st2_dur1,3.0,2.0,1.0,0.0,-1.0,-2.0,l1_eng,5.450197048775658,-0.13604800280042328
263e3de6050126,dis022,2,1,41,https://d3uxfe7dw0hhy7.cloudfront.net/annie-helms/new_catalan/F2_dur4,485,20,OK,pondis,999,pen,F2_dur4,2.0,3.0,4.0,-1.0,0.0,1.0,l1_eng,5.450197048775658,-0.13604800280042328
263e3de6050126,dis022,2,1,42,https://d3uxfe7dw0hhy7.cloudfront.net/annie-helms/new_catalan/F1_st2,471,20,OK,pondis,804,pen,F1_st2,1.0,2.0,3.0,-2.0,-1.0,0.0,l1_eng,5.450197048775658,-0.13604800280042328
263e3de6050126,dis022,2,1,43,https://d3uxfe7dw0hhy7.cloudfront.net/annie-helms/new_catalan/st4_dur2,481,15,OK,pondis,870,pen,st4_dur2,3.0,4.0,2.0,0.0,1.0,-1.0,l1_eng,5.450197048775658,-0.13604800280042328
263e3de6050126,dis022,2,1,44,https://d3uxfe7dw0hhy7.cloudfront.net/annie-helms/new_catalan/st3_dur5,472,20,OK,pondis,848,pen,st3_dur5,3.0,3.0,5.0,0.0,0.0,2.0,l1_eng,5.450197048775658,-0.13604800280042328
263e3de6050126,dis022,2,1,45,https://d3uxfe7dw0hhy7.cloudfront.net/annie-helms/new_catalan/st4_dur5,472,20,OK,pondis,536,pen,st4_dur5,3.0,4.0,5.0,0.0,1.0,2.0,l1_eng,5.450197048775658,-0.13604800280042328
263e3de6050126,dis022,2,1,46,https://d3uxfe7dw0hhy7.cloudfront.net/annie-helms/new_catalan/F3_st4,461,20,OK,pondis,888,pen,F3_st4,3.0,4.0,3.0,0.0,1.0,0.0,l1_eng,5.450197048775658,-0.13604800280042328
263e3de6050126,dis022,2,1,47,https://d3uxfe7dw0hhy7.cloudfront.net/annie-helms/new_catalan/F4_dur1,485,25,OK,pondis,726,pen,F4_dur1,4.0,3.0,1.0,1.0,0.0,-2.0,l1_eng,5.450197048775658,-0.13604800280042328
263e3de6050126,dis022,2,1,48,https://d3uxfe7dw0hhy7.cloudfront.net/annie-helms/new_catalan/F4_dur4,475,20,OK,pondis,608,pen,F4_dur4,4.0,3.0,4.0,1.0,0.0,1.0,l1_eng,5.450197048775658,-0.13604800280042328
263e3de6050126,dis022,2,1,49,https://d3uxfe7dw0hhy7.cloudfront.net/annie-helms/new_catalan/F5_dur3,491,15,OK,pondis,842,pen,F5_dur3,5.0,3.0,3.0,2.0,0.0,0.0,l1_eng,5.450197048775658,-0.13604800280042328
263e3de6050126,dis022,2,1,50,https://d3uxfe7dw0hhy7.cloudfront.net/annie-helms/new_catalan/F3_dur3,479,15,OK,pondis,709,pen,F3_dur3,3.0,3.0,3.0,0.0,0.0,0.0,l1_eng,5.450197048775658,-0.13604800280042328
263e3de6050126,dis022,2,1,51,https://d3uxfe7dw0hhy7.cloudfront.net/annie-helms/new_catalan/F5_dur5,484,20,OK,pondís,819,ult,F5_dur5,5.0,3.0,5.0,2.0,0.0,2.0,l1_eng,5.450197048775658,-0.13604800280042328
263e3de6050126,dis022,2,1,52,https://d3uxfe7dw0hhy7.cloudfront.net/annie-helms/new_catalan/F4_st4,461,20,OK,pondís,993,ult,F4_st4,4.0,4.0,3.0,1.0,1.0,0.0,l1_eng,5.450197048775658,-0.13604800280042328
263e3de6050126,dis022,2,1,53,https://d3uxfe7dw0hhy7.cloudfront.net/annie-helms/new_catalan/st2_dur4,475,15,OK,pondís,764,ult,st2_dur4,3.0,2.0,4.0,0.0,-1.0,1.0,l1_eng,5.450197048775658,-0.13604800280042328
263e3de6050126,dis022,2,1,54,https://d3uxfe7dw0hhy7.cloudfront.net/annie-helms/new_catalan/st1_dur2,481,20,OK,pondis,1835,pen,st1_dur2,3.0,1.0,2.0,0.0,-2.0,-1.0,l1_eng,5.450197048775658,-0.13604800280042328
263e3de6050126,dis022,2,1,55,https://d3uxfe7dw0hhy7.cloudfront.net/annie-helms/new_catalan/st3_dur4,475,15,OK,pondis,787,pen,st3_dur4,3.0,3.0,4.0,0.0,0.0,1.0,l1_eng,5.450197048775658,-0.13604800280042328
263e3de6050126,dis022,2,1,56,https://d3uxfe7dw0hhy7.cloudfront.net/annie-helms/new_catalan/st1_dur1,484,15,OK,pondís,718,ult,st1_dur1,3.0,1.0,1.0,0.0,-2.0,-2.0,l1_eng,5.450197048775658,-0.13604800280042328
263e3de6050126,dis022,2,1,57,https://d3uxfe7dw0hhy7.cloudfront.net/annie-helms/new_catalan/F5_dur1,497,20,OK,pondis,1782,pen,F5_dur1,5.0,3.0,1.0,2.0,0.0,-2.0,l1_eng,5.450197048775658,-0.13604800280042328
263e3de6050126,dis022,2,1,58,https://d3uxfe7dw0hhy7.cloudfront.net/annie-helms/new_catalan/F5_st2,473,20,OK,pondis,1059,pen,F5_st2,5.0,2.0,3.0,2.0,-1.0,0.0,l1_eng,5.450197048775658,-0.13604800280042328
263e3de6050126,dis022,2,1,59,https://d3uxfe7dw0hhy7.cloudfront.net/annie-helms/new_catalan/F3_dur2,482,15,OK,pondis,1070,pen,F3_dur2,3.0,3.0,2.0,0.0,0.0,-1.0,l1_eng,5.450197048775658,-0.13604800280042328
263e3de6050126,dis022,2,1,60,https://d3uxfe7dw0hhy7.cloudfront.net/annie-helms/new_catalan/st5_dur1,484,20,OK,pondis,680,pen,st5_dur1,3.0,5.0,1.0,0.0,2.0,-2.0,l1_eng,5.450197048775658,-0.13604800280042328
263e3de6050126,dis022,2,1,61,https://d3uxfe7dw0hhy7.cloudfront.net/annie-helms/new_catalan/F5_st4,473,15,OK,pondis,651,pen,F5_st4,5.0,4.0,3.0,2.0,1.0,0.0,l1_eng,5.450197048775658,-0.13604800280042328
263e3de6050126,dis022,2,1,62,https://d3uxfe7dw0hhy7.cloudfront.net/annie-helms/new_catalan/st1_dur3,479,20,OK,pondis,1388,pen,st1_dur3,3.0,1.0,3.0,0.0,-2.0,0.0,l1_eng,5.450197048775658,-0.13604800280042328
263e3de6050126,dis022,2,1,63,https://d3uxfe7dw0hhy7.cloudfront.net/annie-helms/new_catalan/F4_st5,461,20,OK,pondís,1157,ult,F4_st5,4.0,5.0,3.0,1.0,2.0,0.0,l1_eng,5.450197048775658,-0.13604800280042328
263e3de6050126,dis022,2,1,64,https://d3uxfe7dw0hhy7.cloudfront.net/annie-helms/new_catalan/F5_st3,473,15,OK,pondís,1087,ult,F5_st3,5.0,3.0,3.0,2.0,0.0,0.0,l1_eng,5.450197048775658,-0.13604800280042328
263e3de6050126,dis022,2,1,65,https://d3uxfe7dw0hhy7.cloudfront.net/annie-helms/new_catalan/F1_dur3,488,20,OK,pondis,1696,pen,F1_dur3,1.0,3.0,3.0,-2.0,0.0,0.0,l1_eng,5.450197048775658,-0.13604800280042328
263e3de6050126,dis022,2,1,66,https://d3uxfe7dw0hhy7.cloudfront.net/annie-helms/new_catalan/F1_st3,471,15,OK,pondis,1942,pen,F1_st3,1.0,3.0,3.0,-2.0,0.0,0.0,l1_eng,5.450197048775658,-0.13604800280042328
263e3de6050126,dis022,2,1,67,https://d3uxfe7dw0hhy7.cloudfront.net/annie-helms/new_catalan/F1_st5,471,20,OK,pondis,911,pen,F1_st5,1.0,5.0,3.0,-2.0,2.0,0.0,l1_eng,5.450197048775658,-0.13604800280042328
263e3de6050126,dis022,2,1,68,https://d3uxfe7dw0hhy7.cloudfront.net/annie-helms/new_catalan/F3_st1,461,15,OK,pondis,1215,pen,F3_st1,3.0,1.0,3.0,0.0,-2.0,0.0,l1_eng,5.450197048775658,-0.13604800280042328
263e3de6050126,dis022,2,1,69,https://d3uxfe7dw0hhy7.cloudfront.net/annie-helms/new_catalan/F4_st3,461,20,OK,pondis,960,pen,F4_st3,4.0,3.0,3.0,1.0,0.0,0.0,l1_eng,5.450197048775658,-0.13604800280042328
263e3de6050126,dis022,2,1,70,https://d3uxfe7dw0hhy7.cloudfront.net/annie-helms/new_catalan/st2_dur2,481,15,OK,pondís,1036,ult,st2_dur2,3.0,2.0,2.0,0.0,-1.0,-1.0,l1_eng,5.450197048775658,-0.13604800280042328
263e3de6050126,dis022,2,1,71,https://d3uxfe7dw0hhy7.cloudfront.net/annie-helms/new_catalan/F3_st3,461,15,OK,pondís,1906,ult,F3_st3,3.0,3.0,3.0,0.0,0.0,0.0,l1_eng,5.450197048775658,-0.13604800280042328
263e3de6050126,dis022,2,1,72,https://d3uxfe7dw0hhy7.cloudfront.net/annie-helms/new_catalan/F5_st1,473,20,OK,pondís,907,ult,F5_st1,5.0,1.0,3.0,2.0,-2.0,0.0,l1_eng,5.450197048775658,-0.13604800280042328
263e3de6050126,dis022,2,1,73,https://d3uxfe7dw0hhy7.cloudfront.net/annie-helms/new_catalan/F3_dur5,472,15,OK,pondís,783,ult,F3_dur5,3.0,3.0,5.0,0.0,0.0,2.0,l1_eng,5.450197048775658,-0.13604800280042328
263e3de6050126,dis022,2,1,74,https://d3uxfe7dw0hhy7.cloudfront.net/annie-helms/new_catalan/st1_dur5,472,20,OK,pondis,1055,pen,st1_dur5,3.0,1.0,5.0,0.0,-2.0,2.0,l1_eng,5.450197048775658,-0.13604800280042328
263e3de6050126,dis022,2,2,0,https://d3uxfe7dw0hhy7.cloudfront.net/annie-helms/new_catalan/F4_dur1,485,20,OK,pondis,826,pen,F4_dur1,4.0,3.0,1.0,1.0,0.0,-2.0,l1_eng,5.450197048775658,-0.13604800280042328
263e3de6050126,dis022,2,2,1,https://d3uxfe7dw0hhy7.cloudfront.net/annie-helms/new_catalan/F3_dur3,479,20,OK,pondis,691,pen,F3_dur3,3.0,3.0,3.0,0.0,0.0,0.0,l1_eng,5.450197048775658,-0.13604800280042328
263e3de6050126,dis022,2,2,2,https://d3uxfe7dw0hhy7.cloudfront.net/annie-helms/new_catalan/F5_st4,473,20,OK,pondis,711,pen,F5_st4,5.0,4.0,3.0,2.0,1.0,0.0,l1_eng,5.450197048775658,-0.13604800280042328
263e3de6050126,dis022,2,2,3,https://d3uxfe7dw0hhy7.cloudfront.net/annie-helms/new_catalan/st4_dur3,479,20,OK,pondis,696,pen,st4_dur3,3.0,4.0,3.0,0.0,1.0,0.0,l1_eng,5.450197048775658,-0.13604800280042328
263e3de6050126,dis022,2,2,4,https://d3uxfe7dw0hhy7.cloudfront.net/annie-helms/new_catalan/F1_dur3,488,20,OK,pondis,1099,pen,F1_dur3,1.0,3.0,3.0,-2.0,0.0,0.0,l1_eng,5.450197048775658,-0.13604800280042328
263e3de6050126,dis022,2,2,5,https://d3uxfe7dw0hhy7.cloudfront.net/annie-helms/new_catalan/F2_st3,471,15,OK,pondis,1045,pen,F2_st3,2.0,3.0,3.0,-1.0,0.0,0.0,l1_eng,5.450197048775658,-0.13604800280042328
263e3de6050126,dis022,2,2,6,https://d3uxfe7dw0hhy7.cloudfront.net/annie-helms/new_catalan/st1_dur1,484,25,OK,pondís,969,ult,st1_dur1,3.0,1.0,1.0,0.0,-2.0,-2.0,l1_eng,5.450197048775658,-0.13604800280042328
263e3de6050126,dis022,2,2,7,https://d3uxfe7dw0hhy7.cloudfront.net/annie-helms/new_catalan/st2_dur3,479,15,OK,pondís,805,ult,st2_dur3,3.0,2.0,3.0,0.0,-1.0,0.0,l1_eng,5.450197048775658,-0.13604800280042328
263e3de6050126,dis022,2,2,8,https://d3uxfe7dw0hhy7.cloudfront.net/annie-helms/new_catalan/st5_dur1,484,20,OK,pondis,1319,pen,st5_dur1,3.0,5.0,1.0,0.0,2.0,-2.0,l1_eng,5.450197048775658,-0.13604800280042328
263e3de6050126,dis022,2,2,9,https://d3uxfe7dw0hhy7.cloudfront.net/annie-helms/new_catalan/F4_st2,461,15,OK,pondis,828,pen,F4_st2,4.0,2.0,3.0,1.0,-1.0,0.0,l1_eng,5.450197048775658,-0.13604800280042328
263e3de6050126,dis022,2,2,10,https://d3uxfe7dw0hhy7.cloudfront.net/annie-helms/new_catalan/F3_dur4,475,20,OK,pondis,838,pen,F3_dur4,3.0,3.0,4.0,0.0,0.0,1.0,l1_eng,5.450197048775658,-0.13604800280042328
263e3de6050126,dis022,2,2,11,https://d3uxfe7dw0hhy7.cloudfront.net/annie-helms/new_catalan/F4_st5,461,15,OK,pondis,831,pen,F4_st5,4.0,5.0,3.0,1.0,2.0,0.0,l1_eng,5.450197048775658,-0.13604800280042328
263e3de6050126,dis022,2,2,12,https://d3uxfe7dw0hhy7.cloudfront.net/annie-helms/new_catalan/st2_dur5,472,15,OK,pondis,773,pen,st2_dur5,3.0,2.0,5.0,0.0,-1.0,2.0,l1_eng,5.450197048775658,-0.13604800280042328
263e3de6050126,dis022,2,2,13,https://d3uxfe7dw0hhy7.cloudfront.net/annie-helms/new_catalan/st3_dur3,479,15,OK,pondis,627,pen,st3_dur3,3.0,3.0,3.0,0.0,0.0,0.0,l1_eng,5.450197048775658,-0.13604800280042328
263e3de6050126,dis022,2,2,14,https://d3uxfe7dw0hhy7.cloudfront.net/annie-helms/new_catalan/F1_dur2,491,15,OK,pondis,750,pen,F1_dur2,1.0,3.0,2.0,-2.0,0.0,-1.0,l1_eng,5.450197048775658,-0.13604800280042328
263e3de6050126,dis022,2,2,15,https://d3uxfe7dw0hhy7.cloudfront.net/annie-helms/new_catalan/st3_dur2,481,15,OK,pondis,854,pen,st3_dur2,3.0,3.0,2.0,0.0,0.0,-1.0,l1_eng,5.450197048775658,-0.13604800280042328
263e3de6050126,dis022,2,2,16,https://d3uxfe7dw0hhy7.cloudfront.net/annie-helms/new_catalan/F2_st2,471,15,OK,pondis,819,pen,F2_st2,2.0,2.0,3.0,-1.0,-1.0,0.0,l1_eng,5.450197048775658,-0.13604800280042328
263e3de6050126,dis022,2,2,17,https://d3uxfe7dw0hhy7.cloudfront.net/annie-helms/new_catalan/F4_st4,461,15,OK,pondis,798,pen,F4_st4,4.0,4.0,3.0,1.0,1.0,0.0,l1_eng,5.450197048775658,-0.13604800280042328
263e3de6050126,dis022,2,2,18,https://d3uxfe7dw0hhy7.cloudfront.net/annie-helms/new_catalan/F2_st5,471,15,OK,pondis,758,pen,F2_st5,2.0,5.0,3.0,-1.0,2.0,0.0,l1_eng,5.450197048775658,-0.13604800280042328
263e3de6050126,dis022,2,2,19,https://d3uxfe7dw0hhy7.cloudfront.net/annie-helms/new_catalan/st4_dur4,475,25,OK,pondis,822,pen,st4_dur4,3.0,4.0,4.0,0.0,1.0,1.0,l1_eng,5.450197048775658,-0.13604800280042328
263e3de6050126,dis022,2,2,20,https://d3uxfe7dw0hhy7.cloudfront.net/annie-helms/new_catalan/F5_dur2,493,15,OK,pondis,1080,pen,F5_dur2,5.0,3.0,2.0,2.0,0.0,-1.0,l1_eng,5.450197048775658,-0.13604800280042328
263e3de6050126,dis022,2,2,21,https://d3uxfe7dw0hhy7.cloudfront.net/annie-helms/new_catalan/st3_dur5,472,25,OK,pondis,991,pen,st3_dur5,3.0,3.0,5.0,0.0,0.0,2.0,l1_eng,5.450197048775658,-0.13604800280042328
263e3de6050126,dis022,2,2,22,https://d3uxfe7dw0hhy7.cloudfront.net/annie-helms/new_catalan/F2_dur1,495,15,OK,pondis,1423,pen,F2_dur1,2.0,3.0,1.0,-1.0,0.0,-2.0,l1_eng,5.450197048775658,-0.13604800280042328
263e3de6050126,dis022,2,2,23,https://d3uxfe7dw0hhy7.cloudfront.net/annie-helms/new_catalan/st1_dur4,475,20,OK,pondís,886,ult,st1_dur4,3.0,1.0,4.0,0.0,-2.0,1.0,l1_eng,5.450197048775658,-0.13604800280042328
263e3de6050126,dis022,2,2,24,https://d3uxfe7dw0hhy7.cloudfront.net/annie-helms/new_catalan/st2_dur4,475,20,OK,pondís,1031,ult,st2_dur4,3.0,2.0,4.0,0.0,-1.0,1.0,l1_eng,5.450197048775658,-0.13604800280042328
263e3de6050126,dis022,2,2,25,https://d3uxfe7dw0hhy7.cloudfront.net/annie-helms/new_catalan/st4_dur5,472,15,OK,pondís,1911,ult,st4_dur5,3.0,4.0,5.0,0.0,1.0,2.0,l1_eng,5.450197048775658,-0.13604800280042328
263e3de6050126,dis022,2,2,26,https://d3uxfe7dw0hhy7.cloudfront.net/annie-helms/new_catalan/F1_st4,471,15,OK,pondis,1464,pen,F1_st4,1.0,4.0,3.0,-2.0,1.0,0.0,l1_eng,5.450197048775658,-0.13604800280042328
263e3de6050126,dis022,2,2,27,https://d3uxfe7dw0hhy7.cloudfront.net/annie-helms/new_catalan/F1_dur4,485,15,OK,pondis,789,pen,F1_dur4,1.0,3.0,4.0,-2.0,0.0,1.0,l1_eng,5.450197048775658,-0.13604800280042328
263e3de6050126,dis022,2,2,28,https://d3uxfe7dw0hhy7.cloudfront.net/annie-helms/new_catalan/F5_st3,473,20,OK,pondis,915,pen,F5_st3,5.0,3.0,3.0,2.0,0.0,0.0,l1_eng,5.450197048775658,-0.13604800280042328
263e3de6050126,dis022,2,2,29,https://d3uxfe7dw0hhy7.cloudfront.net/annie-helms/new_catalan/F1_dur5,482,20,OK,pondis,956,pen,F1_dur5,1.0,3.0,5.0,-2.0,0.0,2.0,l1_eng,5.450197048775658,-0.13604800280042328
263e3de6050126,dis022,2,2,30,https://d3uxfe7dw0hhy7.cloudfront.net/annie-helms/new_catalan/st2_dur1,484,15,OK,pondís,888,ult,st2_dur1,3.0,2.0,1.0,0.0,-1.0,-2.0,l1_eng,5.450197048775658,-0.13604800280042328
263e3de6050126,dis022,2,2,31,https://d3uxfe7dw0hhy7.cloudfront.net/annie-helms/new_catalan/F1_st2,471,20,OK,pondís,826,ult,F1_st2,1.0,2.0,3.0,-2.0,-1.0,0.0,l1_eng,5.450197048775658,-0.13604800280042328
263e3de6050126,dis022,2,2,32,https://d3uxfe7dw0hhy7.cloudfront.net/annie-helms/new_catalan/F1_st5,471,15,OK,pondís,937,ult,F1_st5,1.0,5.0,3.0,-2.0,2.0,0.0,l1_eng,5.450197048775658,-0.13604800280042328
263e3de6050126,dis022,2,2,33,https://d3uxfe7dw0hhy7.cloudfront.net/annie-helms/new_catalan/st1_dur2,481,20,OK,pondís,834,ult,st1_dur2,3.0,1.0,2.0,0.0,-2.0,-1.0,l1_eng,5.450197048775658,-0.13604800280042328
263e3de6050126,dis022,2,2,34,https://d3uxfe7dw0hhy7.cloudfront.net/annie-helms/new_catalan/F5_dur4,487,20,OK,pondís,781,ult,F5_dur4,5.0,3.0,4.0,2.0,0.0,1.0,l1_eng,5.450197048775658,-0.13604800280042328
263e3de6050126,dis022,2,2,35,https://d3uxfe7dw0hhy7.cloudfront.net/annie-helms/new_catalan/st4_dur2,481,15,OK,pondís,740,ult,st4_dur2,3.0,4.0,2.0,0.0,1.0,-1.0,l1_eng,5.450197048775658,-0.13604800280042328
263e3de6050126,dis022,2,2,36,https://d3uxfe7dw0hhy7.cloudfront.net/annie-helms/new_catalan/F3_dur2,482,15,OK,pondís,724,ult,F3_dur2,3.0,3.0,2.0,0.0,0.0,-1.0,l1_eng,5.450197048775658,-0.13604800280042328
263e3de6050126,dis022,2,2,37,https://d3uxfe7dw0hhy7.cloudfront.net/annie-helms/new_catalan/F3_st4,461,20,OK,pondís,876,ult,F3_st4,3.0,4.0,3.0,0.0,1.0,0.0,l1_eng,5.450197048775658,-0.13604800280042328
263e3de6050126,dis022,2,2,38,https://d3uxfe7dw0hhy7.cloudfront.net/annie-helms/new_catalan/st1_dur3,479,15,OK,pondis,947,pen,st1_dur3,3.0,1.0,3.0,0.0,-2.0,0.0,l1_eng,5.450197048775658,-0.13604800280042328
263e3de6050126,dis022,2,2,39,https://d3uxfe7dw0hhy7.cloudfront.net/annie-helms/new_catalan/F2_dur3,489,15,OK,pondis,959,pen,F2_dur3,2.0,3.0,3.0,-1.0,0.0,0.0,l1_eng,5.450197048775658,-0.13604800280042328
263e3de6050126,dis022,2,2,40,https://d3uxfe7dw0hhy7.cloudfront.net/annie-helms/new_catalan/F3_dur5,472,15,OK,pondís,952,ult,F3_dur5,3.0,3.0,5.0,0.0,0.0,2.0,l1_eng,5.450197048775658,-0.13604800280042328
263e3de6050126,dis022,2,2,41,https://d3uxfe7dw0hhy7.cloudfront.net/annie-helms/new_catalan/F5_dur3,491,15,OK,pondís,778,ult,F5_dur3,5.0,3.0,3.0,2.0,0.0,0.0,l1_eng,5.450197048775658,-0.13604800280042328
263e3de6050126,dis022,2,2,42,https://d3uxfe7dw0hhy7.cloudfront.net/annie-helms/new_catalan/F2_st1,471,15,OK,pondis,1610,pen,F2_st1,2.0,1.0,3.0,-1.0,-2.0,0.0,l1_eng,5.450197048775658,-0.13604800280042328
263e3de6050126,dis022,2,2,43,https://d3uxfe7dw0hhy7.cloudfront.net/annie-helms/new_catalan/F1_st1,471,15,OK,pondis,832,pen,F1_st1,1.0,1.0,3.0,-2.0,-2.0,0.0,l1_eng,5.450197048775658,-0.13604800280042328
263e3de6050126,dis022,2,2,44,https://d3uxfe7dw0hhy7.cloudfront.net/annie-helms/new_catalan/F2_st4,471,15,OK,pondis,854,pen,F2_st4,2.0,4.0,3.0,-1.0,1.0,0.0,l1_eng,5.450197048775658,-0.13604800280042328
263e3de6050126,dis022,2,2,45,https://d3uxfe7dw0hhy7.cloudfront.net/annie-helms/new_catalan/st5_dur2,481,15,OK,pondis,895,pen,st5_dur2,3.0,5.0,2.0,0.0,2.0,-1.0,l1_eng,5.450197048775658,-0.13604800280042328
263e3de6050126,dis022,2,2,46,https://d3uxfe7dw0hhy7.cloudfront.net/annie-helms/new_catalan/F3_st1,461,15,OK,pondis,958,pen,F3_st1,3.0,1.0,3.0,0.0,-2.0,0.0,l1_eng,5.450197048775658,-0.13604800280042328
263e3de6050126,dis022,2,2,47,https://d3uxfe7dw0hhy7.cloudfront.net/annie-helms/new_catalan/F3_dur1,485,15,OK,pondis,838,pen,F3_dur1,3.0,3.0,1.0,0.0,0.0,-2.0,l1_eng,5.450197048775658,-0.13604800280042328
263e3de6050126,dis022,2,2,48,https://d3uxfe7dw0hhy7.cloudfront.net/annie-helms/new_catalan/F4_dur4,475,20,OK,pondis,916,pen,F4_dur4,4.0,3.0,4.0,1.0,0.0,1.0,l1_eng,5.450197048775658,-0.13604800280042328
263e3de6050126,dis022,2,2,49,https://d3uxfe7dw0hhy7.cloudfront.net/annie-helms/new_catalan/st3_dur4,475,20,OK,pondis,889,pen,st3_dur4,3.0,3.0,4.0,0.0,0.0,1.0,l1_eng,5.450197048775658,-0.13604800280042328
263e3de6050126,dis022,2,2,50,https://d3uxfe7dw0hhy7.cloudfront.net/annie-helms/new_catalan/st5_dur5,472,20,OK,pondis,763,pen,st5_dur5,3.0,5.0,5.0,0.0,2.0,2.0,l1_eng,5.450197048775658,-0.13604800280042328
263e3de6050126,dis022,2,2,51,https://d3uxfe7dw0hhy7.cloudfront.net/annie-helms/new_catalan/F5_st5,473,20,OK,pondis,1141,pen,F5_st5,5.0,5.0,3.0,2.0,2.0,0.0,l1_eng,5.450197048775658,-0.13604800280042328
263e3de6050126,dis022,2,2,52,https://d3uxfe7dw0hhy7.cloudfront.net/annie-helms/new_catalan/F3_st5,461,15,OK,pondis,1192,pen,F3_st5,3.0,5.0,3.0,0.0,2.0,0.0,l1_eng,5.450197048775658,-0.13604800280042328
263e3de6050126,dis022,2,2,53,https://d3uxfe7dw0hhy7.cloudfront.net/annie-helms/new_catalan/F4_dur3,479,15,OK,pondis,972,pen,F4_dur3,4.0,3.0,3.0,1.0,0.0,0.0,l1_eng,5.450197048775658,-0.13604800280042328
263e3de6050126,dis022,2,2,54,https://d3uxfe7dw0hhy7.cloudfront.net/annie-helms/new_catalan/F5_dur1,497,15,OK,pondis,934,pen,F5_dur1,5.0,3.0,1.0,2.0,0.0,-2.0,l1_eng,5.450197048775658,-0.13604800280042328
263e3de6050126,dis022,2,2,55,https://d3uxfe7dw0hhy7.cloudfront.net/annie-helms/new_catalan/F2_dur2,492,15,OK,pondis,961,pen,F2_dur2,2.0,3.0,2.0,-1.0,0.0,-1.0,l1_eng,5.450197048775658,-0.13604800280042328
263e3de6050126,dis022,2,2,56,https://d3uxfe7dw0hhy7.cloudfront.net/annie-helms/new_catalan/F1_st3,471,15,OK,pondis,992,pen,F1_st3,1.0,3.0,3.0,-2.0,0.0,0.0,l1_eng,5.450197048775658,-0.13604800280042328
263e3de6050126,dis022,2,2,57,https://d3uxfe7dw0hhy7.cloudfront.net/annie-helms/new_catalan/st1_dur5,472,20,OK,pondis,1103,pen,st1_dur5,3.0,1.0,5.0,0.0,-2.0,2.0,l1_eng,5.450197048775658,-0.13604800280042328
263e3de6050126,dis022,2,2,58,https://d3uxfe7dw0hhy7.cloudfront.net/annie-helms/new_catalan/F5_st2,473,20,OK,pondis,1128,pen,F5_st2,5.0,2.0,3.0,2.0,-1.0,0.0,l1_eng,5.450197048775658,-0.13604800280042328
263e3de6050126,dis022,2,2,59,https://d3uxfe7dw0hhy7.cloudfront.net/annie-helms/new_catalan/F4_dur5,472,20,OK,pondis,791,pen,F4_dur5,4.0,3.0,5.0,1.0,0.0,2.0,l1_eng,5.450197048775658,-0.13604800280042328
263e3de6050126,dis022,2,2,60,https://d3uxfe7dw0hhy7.cloudfront.net/annie-helms/new_catalan/F2_dur4,485,20,OK,pondis,611,pen,F2_dur4,2.0,3.0,4.0,-1.0,0.0,1.0,l1_eng,5.450197048775658,-0.13604800280042328
263e3de6050126,dis022,2,2,61,https://d3uxfe7dw0hhy7.cloudfront.net/annie-helms/new_catalan/F5_dur5,484,20,OK,pondis,887,pen,F5_dur5,5.0,3.0,5.0,2.0,0.0,2.0,l1_eng,5.450197048775658,-0.13604800280042328
263e3de6050126,dis022,2,2,62,https://d3uxfe7dw0hhy7.cloudfront.net/annie-helms/new_catalan/F1_dur1,494,25,OK,pondis,1218,pen,F1_dur1,1.0,3.0,1.0,-2.0,0.0,-2.0,l1_eng,5.450197048775658,-0.13604800280042328
263e3de6050126,dis022,2,2,63,https://d3uxfe7dw0hhy7.cloudfront.net/annie-helms/new_catalan/st5_dur4,475,20,OK,pondis,742,pen,st5_dur4,3.0,5.0,4.0,0.0,2.0,1.0,l1_eng,5.450197048775658,-0.13604800280042328
263e3de6050126,dis022,2,2,64,https://d3uxfe7dw0hhy7.cloudfront.net/annie-helms/new_catalan/st3_dur1,484,25,OK,pondis,974,pen,st3_dur1,3.0,3.0,1.0,0.0,0.0,-2.0,l1_eng,5.450197048775658,-0.13604800280042328
263e3de6050126,dis022,2,2,65,https://d3uxfe7dw0hhy7.cloudfront.net/annie-helms/new_catalan/F4_st1,461,20,OK,pondis,1189,pen,F4_st1,4.0,1.0,3.0,1.0,-2.0,0.0,l1_eng,5.450197048775658,-0.13604800280042328
263e3de6050126,dis022,2,2,66,https://d3uxfe7dw0hhy7.cloudfront.net/annie-helms/new_catalan/st2_dur2,481,20,OK,pondis,1135,pen,st2_dur2,3.0,2.0,2.0,0.0,-1.0,-1.0,l1_eng,5.450197048775658,-0.13604800280042328
263e3de6050126,dis022,2,2,67,https://d3uxfe7dw0hhy7.cloudfront.net/annie-helms/new_catalan/F4_st3,461,25,OK,pondis,877,pen,F4_st3,4.0,3.0,3.0,1.0,0.0,0.0,l1_eng,5.450197048775658,-0.13604800280042328
263e3de6050126,dis022,2,2,68,https://d3uxfe7dw0hhy7.cloudfront.net/annie-helms/new_catalan/F3_st2,461,25,OK,pondis,894,pen,F3_st2,3.0,2.0,3.0,0.0,-1.0,0.0,l1_eng,5.450197048775658,-0.13604800280042328
263e3de6050126,dis022,2,2,69,https://d3uxfe7dw0hhy7.cloudfront.net/annie-helms/new_catalan/F3_st3,461,25,OK,pondis,845,pen,F3_st3,3.0,3.0,3.0,0.0,0.0,0.0,l1_eng,5.450197048775658,-0.13604800280042328
263e3de6050126,dis022,2,2,70,https://d3uxfe7dw0hhy7.cloudfront.net/annie-helms/new_catalan/st4_dur1,484,15,OK,pondis,1125,pen,st4_dur1,3.0,4.0,1.0,0.0,1.0,-2.0,l1_eng,5.450197048775658,-0.13604800280042328
263e3de6050126,dis022,2,2,71,https://d3uxfe7dw0hhy7.cloudfront.net/annie-helms/new_catalan/F4_dur2,482,20,OK,pondis,1040,pen,F4_dur2,4.0,3.0,2.0,1.0,0.0,-1.0,l1_eng,5.450197048775658,-0.13604800280042328
263e3de6050126,dis022,2,2,72,https://d3uxfe7dw0hhy7.cloudfront.net/annie-helms/new_catalan/F2_dur5,482,15,OK,pondis,974,pen,F2_dur5,2.0,3.0,5.0,-1.0,0.0,2.0,l1_eng,5.450197048775658,-0.13604800280042328
263e3de6050126,dis022,2,2,73,https://d3uxfe7dw0hhy7.cloudfront.net/annie-helms/new_catalan/F5_st1,473,10,OK,pondis,1055,pen,F5_st1,5.0,1.0,3.0,2.0,-2.0,0.0,l1_eng,5.450197048775658,-0.13604800280042328
263e3de6050126,dis022,2,2,74,https://d3uxfe7dw0hhy7.cloudfront.net/annie-helms/new_catalan/st5_dur3,479,15,OK,pondís,2127,ult,st5_dur3,3.0,5.0,3.0,0.0,2.0,0.0,l1_eng,5.450197048775658,-0.13604800280042328
263e3ef025c977,eir057,2,1,0,https://d3uxfe7dw0hhy7.cloudfront.net/annie-helms/new_catalan/F3_dur1,485,5,OK,pondis,1413,pen,F3_dur1,3.0,3.0,1.0,0.0,0.0,-2.0,l1_eng,4.9324135813698655,-1.5956122973509013
263e3ef025c977,eir057,2,1,1,https://d3uxfe7dw0hhy7.cloudfront.net/annie-helms/new_catalan/F5_dur5,484,5,OK,pondís,2261,ult,F5_dur5,5.0,3.0,5.0,2.0,0.0,2.0,l1_eng,4.9324135813698655,-1.5956122973509013
263e3ef025c977,eir057,2,1,2,https://d3uxfe7dw0hhy7.cloudfront.net/annie-helms/new_catalan/F3_st5,461,5,OK,pondis,1251,pen,F3_st5,3.0,5.0,3.0,0.0,2.0,0.0,l1_eng,4.9324135813698655,-1.5956122973509013
263e3ef025c977,eir057,2,1,3,https://d3uxfe7dw0hhy7.cloudfront.net/annie-helms/new_catalan/st5_dur4,475,5,OK,pondis,1162,pen,st5_dur4,3.0,5.0,4.0,0.0,2.0,1.0,l1_eng,4.9324135813698655,-1.5956122973509013
263e3ef025c977,eir057,2,1,4,https://d3uxfe7dw0hhy7.cloudfront.net/annie-helms/new_catalan/F2_st5,471,5,OK,pondis,946,pen,F2_st5,2.0,5.0,3.0,-1.0,2.0,0.0,l1_eng,4.9324135813698655,-1.5956122973509013
263e3ef025c977,eir057,2,1,5,https://d3uxfe7dw0hhy7.cloudfront.net/annie-helms/new_catalan/F5_st4,473,15,OK,pondis,1091,pen,F5_st4,5.0,4.0,3.0,2.0,1.0,0.0,l1_eng,4.9324135813698655,-1.5956122973509013
263e3ef025c977,eir057,2,1,6,https://d3uxfe7dw0hhy7.cloudfront.net/annie-helms/new_catalan/F3_st3,461,5,OK,pondis,957,pen,F3_st3,3.0,3.0,3.0,0.0,0.0,0.0,l1_eng,4.9324135813698655,-1.5956122973509013
263e3ef025c977,eir057,2,1,7,https://d3uxfe7dw0hhy7.cloudfront.net/annie-helms/new_catalan/F3_st2,461,5,OK,pondis,1037,pen,F3_st2,3.0,2.0,3.0,0.0,-1.0,0.0,l1_eng,4.9324135813698655,-1.5956122973509013
263e3ef025c977,eir057,2,1,8,https://d3uxfe7dw0hhy7.cloudfront.net/annie-helms/new_catalan/st5_dur3,479,5,OK,pondis,890,pen,st5_dur3,3.0,5.0,3.0,0.0,2.0,0.0,l1_eng,4.9324135813698655,-1.5956122973509013
263e3ef025c977,eir057,2,1,9,https://d3uxfe7dw0hhy7.cloudfront.net/annie-helms/new_catalan/st1_dur1,484,10,OK,pondis,977,pen,st1_dur1,3.0,1.0,1.0,0.0,-2.0,-2.0,l1_eng,4.9324135813698655,-1.5956122973509013
263e3ef025c977,eir057,2,1,10,https://d3uxfe7dw0hhy7.cloudfront.net/annie-helms/new_catalan/F1_dur2,491,5,OK,pondis,977,pen,F1_dur2,1.0,3.0,2.0,-2.0,0.0,-1.0,l1_eng,4.9324135813698655,-1.5956122973509013
263e3ef025c977,eir057,2,1,11,https://d3uxfe7dw0hhy7.cloudfront.net/annie-helms/new_catalan/F1_st3,471,5,OK,pondis,873,pen,F1_st3,1.0,3.0,3.0,-2.0,0.0,0.0,l1_eng,4.9324135813698655,-1.5956122973509013
263e3ef025c977,eir057,2,1,12,https://d3uxfe7dw0hhy7.cloudfront.net/annie-helms/new_catalan/st4_dur4,475,5,OK,pondis,941,pen,st4_dur4,3.0,4.0,4.0,0.0,1.0,1.0,l1_eng,4.9324135813698655,-1.5956122973509013
263e3ef025c977,eir057,2,1,13,https://d3uxfe7dw0hhy7.cloudfront.net/annie-helms/new_catalan/F5_st5,473,5,OK,pondis,1064,pen,F5_st5,5.0,5.0,3.0,2.0,2.0,0.0,l1_eng,4.9324135813698655,-1.5956122973509013
263e3ef025c977,eir057,2,1,14,https://d3uxfe7dw0hhy7.cloudfront.net/annie-helms/new_catalan/st3_dur1,484,5,OK,pondis,1037,pen,st3_dur1,3.0,3.0,1.0,0.0,0.0,-2.0,l1_eng,4.9324135813698655,-1.5956122973509013
263e3ef025c977,eir057,2,1,15,https://d3uxfe7dw0hhy7.cloudfront.net/annie-helms/new_catalan/F2_st2,471,5,OK,pondis,1014,pen,F2_st2,2.0,2.0,3.0,-1.0,-1.0,0.0,l1_eng,4.9324135813698655,-1.5956122973509013
263e3ef025c977,eir057,2,1,16,https://d3uxfe7dw0hhy7.cloudfront.net/annie-helms/new_catalan/F1_dur4,485,5,OK,pondis,1183,pen,F1_dur4,1.0,3.0,4.0,-2.0,0.0,1.0,l1_eng,4.9324135813698655,-1.5956122973509013
263e3ef025c977,eir057,2,1,17,https://d3uxfe7dw0hhy7.cloudfront.net/annie-helms/new_catalan/st5_dur5,472,5,OK,pondis,997,pen,st5_dur5,3.0,5.0,5.0,0.0,2.0,2.0,l1_eng,4.9324135813698655,-1.5956122973509013
263e3ef025c977,eir057,2,1,18,https://d3uxfe7dw0hhy7.cloudfront.net/annie-helms/new_catalan/st4_dur3,479,5,OK,pondis,925,pen,st4_dur3,3.0,4.0,3.0,0.0,1.0,0.0,l1_eng,4.9324135813698655,-1.5956122973509013
263e3ef025c977,eir057,2,1,19,https://d3uxfe7dw0hhy7.cloudfront.net/annie-helms/new_catalan/st5_dur1,484,5,OK,pondis,960,pen,st5_dur1,3.0,5.0,1.0,0.0,2.0,-2.0,l1_eng,4.9324135813698655,-1.5956122973509013
263e3ef025c977,eir057,2,1,20,https://d3uxfe7dw0hhy7.cloudfront.net/annie-helms/new_catalan/F1_st1,471,5,OK,pondis,962,pen,F1_st1,1.0,1.0,3.0,-2.0,-2.0,0.0,l1_eng,4.9324135813698655,-1.5956122973509013
263e3ef025c977,eir057,2,1,21,https://d3uxfe7dw0hhy7.cloudfront.net/annie-helms/new_catalan/st5_dur2,481,5,OK,pondis,1003,pen,st5_dur2,3.0,5.0,2.0,0.0,2.0,-1.0,l1_eng,4.9324135813698655,-1.5956122973509013
263e3ef025c977,eir057,2,1,22,https://d3uxfe7dw0hhy7.cloudfront.net/annie-helms/new_catalan/st2_dur4,475,5,OK,pondis,971,pen,st2_dur4,3.0,2.0,4.0,0.0,-1.0,1.0,l1_eng,4.9324135813698655,-1.5956122973509013
263e3ef025c977,eir057,2,1,23,https://d3uxfe7dw0hhy7.cloudfront.net/annie-helms/new_catalan/F3_dur5,472,5,OK,pondis,1083,pen,F3_dur5,3.0,3.0,5.0,0.0,0.0,2.0,l1_eng,4.9324135813698655,-1.5956122973509013
263e3ef025c977,eir057,2,1,24,https://d3uxfe7dw0hhy7.cloudfront.net/annie-helms/new_catalan/F2_dur3,489,5,OK,pondis,922,pen,F2_dur3,2.0,3.0,3.0,-1.0,0.0,0.0,l1_eng,4.9324135813698655,-1.5956122973509013
263e3ef025c977,eir057,2,1,25,https://d3uxfe7dw0hhy7.cloudfront.net/annie-helms/new_catalan/F1_st4,471,5,OK,pondis,825,pen,F1_st4,1.0,4.0,3.0,-2.0,1.0,0.0,l1_eng,4.9324135813698655,-1.5956122973509013
263e3ef025c977,eir057,2,1,26,https://d3uxfe7dw0hhy7.cloudfront.net/annie-helms/new_catalan/F4_dur3,479,5,OK,pondis,877,pen,F4_dur3,4.0,3.0,3.0,1.0,0.0,0.0,l1_eng,4.9324135813698655,-1.5956122973509013
263e3ef025c977,eir057,2,1,27,https://d3uxfe7dw0hhy7.cloudfront.net/annie-helms/new_catalan/st3_dur5,472,10,OK,pondis,843,pen,st3_dur5,3.0,3.0,5.0,0.0,0.0,2.0,l1_eng,4.9324135813698655,-1.5956122973509013
263e3ef025c977,eir057,2,1,28,https://d3uxfe7dw0hhy7.cloudfront.net/annie-helms/new_catalan/st2_dur1,484,5,OK,pondis,907,pen,st2_dur1,3.0,2.0,1.0,0.0,-1.0,-2.0,l1_eng,4.9324135813698655,-1.5956122973509013
263e3ef025c977,eir057,2,1,29,https://d3uxfe7dw0hhy7.cloudfront.net/annie-helms/new_catalan/F4_st1,461,10,OK,pondis,1003,pen,F4_st1,4.0,1.0,3.0,1.0,-2.0,0.0,l1_eng,4.9324135813698655,-1.5956122973509013
263e3ef025c977,eir057,2,1,30,https://d3uxfe7dw0hhy7.cloudfront.net/annie-helms/new_catalan/F5_dur1,497,5,OK,pondis,1122,pen,F5_dur1,5.0,3.0,1.0,2.0,0.0,-2.0,l1_eng,4.9324135813698655,-1.5956122973509013
263e3ef025c977,eir057,2,1,31,https://d3uxfe7dw0hhy7.cloudfront.net/annie-helms/new_catalan/F2_dur1,495,5,OK,pondis,1029,pen,F2_dur1,2.0,3.0,1.0,-1.0,0.0,-2.0,l1_eng,4.9324135813698655,-1.5956122973509013
263e3ef025c977,eir057,2,1,32,https://d3uxfe7dw0hhy7.cloudfront.net/annie-helms/new_catalan/F3_dur3,479,5,OK,pondis,1007,pen,F3_dur3,3.0,3.0,3.0,0.0,0.0,0.0,l1_eng,4.9324135813698655,-1.5956122973509013
263e3ef025c977,eir057,2,1,33,https://d3uxfe7dw0hhy7.cloudfront.net/annie-helms/new_catalan/st4_dur2,481,5,OK,pondis,999,pen,st4_dur2,3.0,4.0,2.0,0.0,1.0,-1.0,l1_eng,4.9324135813698655,-1.5956122973509013
263e3ef025c977,eir057,2,1,34,https://d3uxfe7dw0hhy7.cloudfront.net/annie-helms/new_catalan/st3_dur2,481,5,OK,pondis,1178,pen,st3_dur2,3.0,3.0,2.0,0.0,0.0,-1.0,l1_eng,4.9324135813698655,-1.5956122973509013
263e3ef025c977,eir057,2,1,35,https://d3uxfe7dw0hhy7.cloudfront.net/annie-helms/new_catalan/F4_dur4,475,5,OK,pondis,1106,pen,F4_dur4,4.0,3.0,4.0,1.0,0.0,1.0,l1_eng,4.9324135813698655,-1.5956122973509013
263e3ef025c977,eir057,2,1,36,https://d3uxfe7dw0hhy7.cloudfront.net/annie-helms/new_catalan/F1_st2,471,5,OK,pondis,1064,pen,F1_st2,1.0,2.0,3.0,-2.0,-1.0,0.0,l1_eng,4.9324135813698655,-1.5956122973509013
263e3ef025c977,eir057,2,1,37,https://d3uxfe7dw0hhy7.cloudfront.net/annie-helms/new_catalan/F4_st4,461,5,OK,pondis,868,pen,F4_st4,4.0,4.0,3.0,1.0,1.0,0.0,l1_eng,4.9324135813698655,-1.5956122973509013
263e3ef025c977,eir057,2,1,38,https://d3uxfe7dw0hhy7.cloudfront.net/annie-helms/new_catalan/st3_dur4,475,5,OK,pondis,991,pen,st3_dur4,3.0,3.0,4.0,0.0,0.0,1.0,l1_eng,4.9324135813698655,-1.5956122973509013
263e3ef025c977,eir057,2,1,39,https://d3uxfe7dw0hhy7.cloudfront.net/annie-helms/new_catalan/F4_st3,461,5,OK,pondis,890,pen,F4_st3,4.0,3.0,3.0,1.0,0.0,0.0,l1_eng,4.9324135813698655,-1.5956122973509013
263e3ef025c977,eir057,2,1,40,https://d3uxfe7dw0hhy7.cloudfront.net/annie-helms/new_catalan/F5_st3,473,5,OK,pondis,1062,pen,F5_st3,5.0,3.0,3.0,2.0,0.0,0.0,l1_eng,4.9324135813698655,-1.5956122973509013
263e3ef025c977,eir057,2,1,41,https://d3uxfe7dw0hhy7.cloudfront.net/annie-helms/new_catalan/F5_dur2,493,5,OK,pondis,849,pen,F5_dur2,5.0,3.0,2.0,2.0,0.0,-1.0,l1_eng,4.9324135813698655,-1.5956122973509013
263e3ef025c977,eir057,2,1,42,https://d3uxfe7dw0hhy7.cloudfront.net/annie-helms/new_catalan/F4_st2,461,5,OK,pondis,712,pen,F4_st2,4.0,2.0,3.0,1.0,-1.0,0.0,l1_eng,4.9324135813698655,-1.5956122973509013
263e3ef025c977,eir057,2,1,43,https://d3uxfe7dw0hhy7.cloudfront.net/annie-helms/new_catalan/F4_dur2,482,5,OK,pondis,833,pen,F4_dur2,4.0,3.0,2.0,1.0,0.0,-1.0,l1_eng,4.9324135813698655,-1.5956122973509013
263e3ef025c977,eir057,2,1,44,https://d3uxfe7dw0hhy7.cloudfront.net/annie-helms/new_catalan/F3_dur2,482,5,OK,pondis,643,pen,F3_dur2,3.0,3.0,2.0,0.0,0.0,-1.0,l1_eng,4.9324135813698655,-1.5956122973509013
263e3ef025c977,eir057,2,1,45,https://d3uxfe7dw0hhy7.cloudfront.net/annie-helms/new_catalan/F1_st5,471,5,OK,pondis,845,pen,F1_st5,1.0,5.0,3.0,-2.0,2.0,0.0,l1_eng,4.9324135813698655,-1.5956122973509013
263e3ef025c977,eir057,2,1,46,https://d3uxfe7dw0hhy7.cloudfront.net/annie-helms/new_catalan/F2_dur2,492,10,OK,pondis,936,pen,F2_dur2,2.0,3.0,2.0,-1.0,0.0,-1.0,l1_eng,4.9324135813698655,-1.5956122973509013
263e3ef025c977,eir057,2,1,47,https://d3uxfe7dw0hhy7.cloudfront.net/annie-helms/new_catalan/F3_st4,461,5,OK,pondis,816,pen,F3_st4,3.0,4.0,3.0,0.0,1.0,0.0,l1_eng,4.9324135813698655,-1.5956122973509013
263e3ef025c977,eir057,2,1,48,https://d3uxfe7dw0hhy7.cloudfront.net/annie-helms/new_catalan/F5_st2,473,5,OK,pondis,1610,pen,F5_st2,5.0,2.0,3.0,2.0,-1.0,0.0,l1_eng,4.9324135813698655,-1.5956122973509013
263e3ef025c977,eir057,2,1,49,https://d3uxfe7dw0hhy7.cloudfront.net/annie-helms/new_catalan/F3_st1,461,5,OK,pondis,911,pen,F3_st1,3.0,1.0,3.0,0.0,-2.0,0.0,l1_eng,4.9324135813698655,-1.5956122973509013
263e3ef025c977,eir057,2,1,50,https://d3uxfe7dw0hhy7.cloudfront.net/annie-helms/new_catalan/F2_st1,471,5,OK,pondis,863,pen,F2_st1,2.0,1.0,3.0,-1.0,-2.0,0.0,l1_eng,4.9324135813698655,-1.5956122973509013
263e3ef025c977,eir057,2,1,51,https://d3uxfe7dw0hhy7.cloudfront.net/annie-helms/new_catalan/st4_dur1,484,5,OK,pondis,1146,pen,st4_dur1,3.0,4.0,1.0,0.0,1.0,-2.0,l1_eng,4.9324135813698655,-1.5956122973509013
263e3ef025c977,eir057,2,1,52,https://d3uxfe7dw0hhy7.cloudfront.net/annie-helms/new_catalan/st4_dur5,472,5,OK,pondis,1067,pen,st4_dur5,3.0,4.0,5.0,0.0,1.0,2.0,l1_eng,4.9324135813698655,-1.5956122973509013
263e3ef025c977,eir057,2,1,53,https://d3uxfe7dw0hhy7.cloudfront.net/annie-helms/new_catalan/st1_dur3,479,5,OK,pondis,1120,pen,st1_dur3,3.0,1.0,3.0,0.0,-2.0,0.0,l1_eng,4.9324135813698655,-1.5956122973509013
263e3ef025c977,eir057,2,1,54,https://d3uxfe7dw0hhy7.cloudfront.net/annie-helms/new_catalan/F5_dur3,491,5,OK,pondis,975,pen,F5_dur3,5.0,3.0,3.0,2.0,0.0,0.0,l1_eng,4.9324135813698655,-1.5956122973509013
263e3ef025c977,eir057,2,1,55,https://d3uxfe7dw0hhy7.cloudfront.net/annie-helms/new_catalan/F4_st5,461,5,OK,pondis,986,pen,F4_st5,4.0,5.0,3.0,1.0,2.0,0.0,l1_eng,4.9324135813698655,-1.5956122973509013
263e3ef025c977,eir057,2,1,56,https://d3uxfe7dw0hhy7.cloudfront.net/annie-helms/new_catalan/F3_dur4,475,5,OK,pondis,903,pen,F3_dur4,3.0,3.0,4.0,0.0,0.0,1.0,l1_eng,4.9324135813698655,-1.5956122973509013
263e3ef025c977,eir057,2,1,57,https://d3uxfe7dw0hhy7.cloudfront.net/annie-helms/new_catalan/F4_dur1,485,5,OK,pondis,1017,pen,F4_dur1,4.0,3.0,1.0,1.0,0.0,-2.0,l1_eng,4.9324135813698655,-1.5956122973509013
263e3ef025c977,eir057,2,1,58,https://d3uxfe7dw0hhy7.cloudfront.net/annie-helms/new_catalan/F2_st3,471,5,OK,pondis,851,pen,F2_st3,2.0,3.0,3.0,-1.0,0.0,0.0,l1_eng,4.9324135813698655,-1.5956122973509013
263e3ef025c977,eir057,2,1,59,https://d3uxfe7dw0hhy7.cloudfront.net/annie-helms/new_catalan/st3_dur3,479,5,OK,pondis,832,pen,st3_dur3,3.0,3.0,3.0,0.0,0.0,0.0,l1_eng,4.9324135813698655,-1.5956122973509013
263e3ef025c977,eir057,2,1,60,https://d3uxfe7dw0hhy7.cloudfront.net/annie-helms/new_catalan/st2_dur5,472,5,OK,pondis,812,pen,st2_dur5,3.0,2.0,5.0,0.0,-1.0,2.0,l1_eng,4.9324135813698655,-1.5956122973509013
263e3ef025c977,eir057,2,1,61,https://d3uxfe7dw0hhy7.cloudfront.net/annie-helms/new_catalan/F1_dur3,488,5,OK,pondis,860,pen,F1_dur3,1.0,3.0,3.0,-2.0,0.0,0.0,l1_eng,4.9324135813698655,-1.5956122973509013
263e3ef025c977,eir057,2,1,62,https://d3uxfe7dw0hhy7.cloudfront.net/annie-helms/new_catalan/F5_st1,473,5,OK,pondís,2440,ult,F5_st1,5.0,1.0,3.0,2.0,-2.0,0.0,l1_eng,4.9324135813698655,-1.5956122973509013
263e3ef025c977,eir057,2,1,63,https://d3uxfe7dw0hhy7.cloudfront.net/annie-helms/new_catalan/st2_dur3,479,5,OK,pondis,1061,pen,st2_dur3,3.0,2.0,3.0,0.0,-1.0,0.0,l1_eng,4.9324135813698655,-1.5956122973509013
263e3ef025c977,eir057,2,1,64,https://d3uxfe7dw0hhy7.cloudfront.net/annie-helms/new_catalan/F5_dur4,487,5,OK,pondis,1427,pen,F5_dur4,5.0,3.0,4.0,2.0,0.0,1.0,l1_eng,4.9324135813698655,-1.5956122973509013
263e3ef025c977,eir057,2,1,65,https://d3uxfe7dw0hhy7.cloudfront.net/annie-helms/new_catalan/F2_st4,471,5,OK,pondis,1096,pen,F2_st4,2.0,4.0,3.0,-1.0,1.0,0.0,l1_eng,4.9324135813698655,-1.5956122973509013
263e3ef025c977,eir057,2,1,66,https://d3uxfe7dw0hhy7.cloudfront.net/annie-helms/new_catalan/st1_dur4,475,5,OK,pondis,1038,pen,st1_dur4,3.0,1.0,4.0,0.0,-2.0,1.0,l1_eng,4.9324135813698655,-1.5956122973509013
263e3ef025c977,eir057,2,1,67,https://d3uxfe7dw0hhy7.cloudfront.net/annie-helms/new_catalan/F2_dur5,482,5,OK,pondis,893,pen,F2_dur5,2.0,3.0,5.0,-1.0,0.0,2.0,l1_eng,4.9324135813698655,-1.5956122973509013
263e3ef025c977,eir057,2,1,68,https://d3uxfe7dw0hhy7.cloudfront.net/annie-helms/new_catalan/F1_dur1,494,5,OK,pondis,1111,pen,F1_dur1,1.0,3.0,1.0,-2.0,0.0,-2.0,l1_eng,4.9324135813698655,-1.5956122973509013
263e3ef025c977,eir057,2,1,69,https://d3uxfe7dw0hhy7.cloudfront.net/annie-helms/new_catalan/F2_dur4,485,5,OK,pondis,992,pen,F2_dur4,2.0,3.0,4.0,-1.0,0.0,1.0,l1_eng,4.9324135813698655,-1.5956122973509013
263e3ef025c977,eir057,2,1,70,https://d3uxfe7dw0hhy7.cloudfront.net/annie-helms/new_catalan/st1_dur2,481,5,OK,pondis,1443,pen,st1_dur2,3.0,1.0,2.0,0.0,-2.0,-1.0,l1_eng,4.9324135813698655,-1.5956122973509013
263e3ef025c977,eir057,2,1,71,https://d3uxfe7dw0hhy7.cloudfront.net/annie-helms/new_catalan/F4_dur5,472,5,OK,pondis,1982,pen,F4_dur5,4.0,3.0,5.0,1.0,0.0,2.0,l1_eng,4.9324135813698655,-1.5956122973509013
263e3ef025c977,eir057,2,1,72,https://d3uxfe7dw0hhy7.cloudfront.net/annie-helms/new_catalan/st2_dur2,481,5,OK,pondis,920,pen,st2_dur2,3.0,2.0,2.0,0.0,-1.0,-1.0,l1_eng,4.9324135813698655,-1.5956122973509013
263e3ef025c977,eir057,2,1,73,https://d3uxfe7dw0hhy7.cloudfront.net/annie-helms/new_catalan/st1_dur5,472,5,OK,pondis,1400,pen,st1_dur5,3.0,1.0,5.0,0.0,-2.0,2.0,l1_eng,4.9324135813698655,-1.5956122973509013
263e3ef025c977,eir057,2,1,74,https://d3uxfe7dw0hhy7.cloudfront.net/annie-helms/new_catalan/F1_dur5,482,5,OK,pondis,944,pen,F1_dur5,1.0,3.0,5.0,-2.0,0.0,2.0,l1_eng,4.9324135813698655,-1.5956122973509013
263e3ef025c977,eir057,2,2,0,https://d3uxfe7dw0hhy7.cloudfront.net/annie-helms/new_catalan/F5_st5,473,10,OK,pondis,2370,pen,F5_st5,5.0,5.0,3.0,2.0,2.0,0.0,l1_eng,4.9324135813698655,-1.5956122973509013
263e3ef025c977,eir057,2,2,1,https://d3uxfe7dw0hhy7.cloudfront.net/annie-helms/new_catalan/F4_dur1,485,5,OK,pondis,823,pen,F4_dur1,4.0,3.0,1.0,1.0,0.0,-2.0,l1_eng,4.9324135813698655,-1.5956122973509013
263e3ef025c977,eir057,2,2,2,https://d3uxfe7dw0hhy7.cloudfront.net/annie-helms/new_catalan/F4_dur5,472,5,OK,pondís,987,ult,F4_dur5,4.0,3.0,5.0,1.0,0.0,2.0,l1_eng,4.9324135813698655,-1.5956122973509013
263e3ef025c977,eir057,2,2,3,https://d3uxfe7dw0hhy7.cloudfront.net/annie-helms/new_catalan/st1_dur2,481,5,OK,pondis,1089,pen,st1_dur2,3.0,1.0,2.0,0.0,-2.0,-1.0,l1_eng,4.9324135813698655,-1.5956122973509013
263e3ef025c977,eir057,2,2,4,https://d3uxfe7dw0hhy7.cloudfront.net/annie-helms/new_catalan/F1_dur3,488,5,OK,pondis,1201,pen,F1_dur3,1.0,3.0,3.0,-2.0,0.0,0.0,l1_eng,4.9324135813698655,-1.5956122973509013
263e3ef025c977,eir057,2,2,5,https://d3uxfe7dw0hhy7.cloudfront.net/annie-helms/new_catalan/F2_st2,471,5,OK,pondís,1621,ult,F2_st2,2.0,2.0,3.0,-1.0,-1.0,0.0,l1_eng,4.9324135813698655,-1.5956122973509013
263e3ef025c977,eir057,2,2,6,https://d3uxfe7dw0hhy7.cloudfront.net/annie-helms/new_catalan/F4_st1,461,5,OK,pondis,1419,pen,F4_st1,4.0,1.0,3.0,1.0,-2.0,0.0,l1_eng,4.9324135813698655,-1.5956122973509013
263e3ef025c977,eir057,2,2,7,https://d3uxfe7dw0hhy7.cloudfront.net/annie-helms/new_catalan/F5_st2,473,5,OK,pondis,1064,pen,F5_st2,5.0,2.0,3.0,2.0,-1.0,0.0,l1_eng,4.9324135813698655,-1.5956122973509013
263e3ef025c977,eir057,2,2,8,https://d3uxfe7dw0hhy7.cloudfront.net/annie-helms/new_catalan/F1_dur5,482,5,OK,pondis,1276,pen,F1_dur5,1.0,3.0,5.0,-2.0,0.0,2.0,l1_eng,4.9324135813698655,-1.5956122973509013
263e3ef025c977,eir057,2,2,9,https://d3uxfe7dw0hhy7.cloudfront.net/annie-helms/new_catalan/F5_st4,473,5,OK,pondís,1537,ult,F5_st4,5.0,4.0,3.0,2.0,1.0,0.0,l1_eng,4.9324135813698655,-1.5956122973509013
263e3ef025c977,eir057,2,2,10,https://d3uxfe7dw0hhy7.cloudfront.net/annie-helms/new_catalan/F4_dur4,475,5,OK,pondis,1192,pen,F4_dur4,4.0,3.0,4.0,1.0,0.0,1.0,l1_eng,4.9324135813698655,-1.5956122973509013
263e3ef025c977,eir057,2,2,11,https://d3uxfe7dw0hhy7.cloudfront.net/annie-helms/new_catalan/st5_dur4,475,5,OK,pondis,813,pen,st5_dur4,3.0,5.0,4.0,0.0,2.0,1.0,l1_eng,4.9324135813698655,-1.5956122973509013
263e3ef025c977,eir057,2,2,12,https://d3uxfe7dw0hhy7.cloudfront.net/annie-helms/new_catalan/F1_dur2,491,5,OK,pondis,935,pen,F1_dur2,1.0,3.0,2.0,-2.0,0.0,-1.0,l1_eng,4.9324135813698655,-1.5956122973509013
263e3ef025c977,eir057,2,2,13,https://d3uxfe7dw0hhy7.cloudfront.net/annie-helms/new_catalan/st1_dur5,472,5,OK,pondis,842,pen,st1_dur5,3.0,1.0,5.0,0.0,-2.0,2.0,l1_eng,4.9324135813698655,-1.5956122973509013
263e3ef025c977,eir057,2,2,14,https://d3uxfe7dw0hhy7.cloudfront.net/annie-helms/new_catalan/st2_dur5,472,5,OK,pondis,780,pen,st2_dur5,3.0,2.0,5.0,0.0,-1.0,2.0,l1_eng,4.9324135813698655,-1.5956122973509013
263e3ef025c977,eir057,2,2,15,https://d3uxfe7dw0hhy7.cloudfront.net/annie-helms/new_catalan/st4_dur4,475,5,OK,pondis,727,pen,st4_dur4,3.0,4.0,4.0,0.0,1.0,1.0,l1_eng,4.9324135813698655,-1.5956122973509013
263e3ef025c977,eir057,2,2,16,https://d3uxfe7dw0hhy7.cloudfront.net/annie-helms/new_catalan/F3_st5,461,5,OK,pondis,824,pen,F3_st5,3.0,5.0,3.0,0.0,2.0,0.0,l1_eng,4.9324135813698655,-1.5956122973509013
263e3ef025c977,eir057,2,2,17,https://d3uxfe7dw0hhy7.cloudfront.net/annie-helms/new_catalan/F5_dur4,487,5,OK,pondis,813,pen,F5_dur4,5.0,3.0,4.0,2.0,0.0,1.0,l1_eng,4.9324135813698655,-1.5956122973509013
263e3ef025c977,eir057,2,2,18,https://d3uxfe7dw0hhy7.cloudfront.net/annie-helms/new_catalan/F5_st1,473,5,OK,pondis,764,pen,F5_st1,5.0,1.0,3.0,2.0,-2.0,0.0,l1_eng,4.9324135813698655,-1.5956122973509013
263e3ef025c977,eir057,2,2,19,https://d3uxfe7dw0hhy7.cloudfront.net/annie-helms/new_catalan/st5_dur5,472,5,OK,pondis,882,pen,st5_dur5,3.0,5.0,5.0,0.0,2.0,2.0,l1_eng,4.9324135813698655,-1.5956122973509013
263e3ef025c977,eir057,2,2,20,https://d3uxfe7dw0hhy7.cloudfront.net/annie-helms/new_catalan/F4_st5,461,5,OK,pondis,761,pen,F4_st5,4.0,5.0,3.0,1.0,2.0,0.0,l1_eng,4.9324135813698655,-1.5956122973509013
263e3ef025c977,eir057,2,2,21,https://d3uxfe7dw0hhy7.cloudfront.net/annie-helms/new_catalan/F2_st3,471,5,OK,pondis,997,pen,F2_st3,2.0,3.0,3.0,-1.0,0.0,0.0,l1_eng,4.9324135813698655,-1.5956122973509013
263e3ef025c977,eir057,2,2,22,https://d3uxfe7dw0hhy7.cloudfront.net/annie-helms/new_catalan/F3_st1,461,5,OK,pondis,1176,pen,F3_st1,3.0,1.0,3.0,0.0,-2.0,0.0,l1_eng,4.9324135813698655,-1.5956122973509013
263e3ef025c977,eir057,2,2,23,https://d3uxfe7dw0hhy7.cloudfront.net/annie-helms/new_catalan/st3_dur4,475,5,OK,pondis,1437,pen,st3_dur4,3.0,3.0,4.0,0.0,0.0,1.0,l1_eng,4.9324135813698655,-1.5956122973509013
263e3ef025c977,eir057,2,2,24,https://d3uxfe7dw0hhy7.cloudfront.net/annie-helms/new_catalan/F2_dur4,485,5,OK,pondis,1110,pen,F2_dur4,2.0,3.0,4.0,-1.0,0.0,1.0,l1_eng,4.9324135813698655,-1.5956122973509013
263e3ef025c977,eir057,2,2,25,https://d3uxfe7dw0hhy7.cloudfront.net/annie-helms/new_catalan/F5_dur5,484,5,OK,pondis,1004,pen,F5_dur5,5.0,3.0,5.0,2.0,0.0,2.0,l1_eng,4.9324135813698655,-1.5956122973509013
263e3ef025c977,eir057,2,2,26,https://d3uxfe7dw0hhy7.cloudfront.net/annie-helms/new_catalan/F4_dur3,479,5,OK,pondis,953,pen,F4_dur3,4.0,3.0,3.0,1.0,0.0,0.0,l1_eng,4.9324135813698655,-1.5956122973509013
263e3ef025c977,eir057,2,2,27,https://d3uxfe7dw0hhy7.cloudfront.net/annie-helms/new_catalan/F1_st5,471,5,OK,pondis,862,pen,F1_st5,1.0,5.0,3.0,-2.0,2.0,0.0,l1_eng,4.9324135813698655,-1.5956122973509013
263e3ef025c977,eir057,2,2,28,https://d3uxfe7dw0hhy7.cloudfront.net/annie-helms/new_catalan/st4_dur5,472,5,OK,pondis,859,pen,st4_dur5,3.0,4.0,5.0,0.0,1.0,2.0,l1_eng,4.9324135813698655,-1.5956122973509013
263e3ef025c977,eir057,2,2,29,https://d3uxfe7dw0hhy7.cloudfront.net/annie-helms/new_catalan/F2_st5,471,5,OK,pondis,862,pen,F2_st5,2.0,5.0,3.0,-1.0,2.0,0.0,l1_eng,4.9324135813698655,-1.5956122973509013
263e3ef025c977,eir057,2,2,30,https://d3uxfe7dw0hhy7.cloudfront.net/annie-helms/new_catalan/F1_dur1,494,5,OK,pondis,1113,pen,F1_dur1,1.0,3.0,1.0,-2.0,0.0,-2.0,l1_eng,4.9324135813698655,-1.5956122973509013
263e3ef025c977,eir057,2,2,31,https://d3uxfe7dw0hhy7.cloudfront.net/annie-helms/new_catalan/F1_st3,471,5,OK,pondis,1035,pen,F1_st3,1.0,3.0,3.0,-2.0,0.0,0.0,l1_eng,4.9324135813698655,-1.5956122973509013
263e3ef025c977,eir057,2,2,32,https://d3uxfe7dw0hhy7.cloudfront.net/annie-helms/new_catalan/st5_dur1,484,5,OK,pondis,1219,pen,st5_dur1,3.0,5.0,1.0,0.0,2.0,-2.0,l1_eng,4.9324135813698655,-1.5956122973509013
263e3ef025c977,eir057,2,2,33,https://d3uxfe7dw0hhy7.cloudfront.net/annie-helms/new_catalan/F3_dur3,479,5,OK,pondis,1048,pen,F3_dur3,3.0,3.0,3.0,0.0,0.0,0.0,l1_eng,4.9324135813698655,-1.5956122973509013
263e3ef025c977,eir057,2,2,34,https://d3uxfe7dw0hhy7.cloudfront.net/annie-helms/new_catalan/st2_dur4,475,5,OK,pondis,938,pen,st2_dur4,3.0,2.0,4.0,0.0,-1.0,1.0,l1_eng,4.9324135813698655,-1.5956122973509013
263e3ef025c977,eir057,2,2,35,https://d3uxfe7dw0hhy7.cloudfront.net/annie-helms/new_catalan/F3_dur4,475,5,OK,pondis,775,pen,F3_dur4,3.0,3.0,4.0,0.0,0.0,1.0,l1_eng,4.9324135813698655,-1.5956122973509013
263e3ef025c977,eir057,2,2,36,https://d3uxfe7dw0hhy7.cloudfront.net/annie-helms/new_catalan/F1_dur4,485,5,OK,pondis,846,pen,F1_dur4,1.0,3.0,4.0,-2.0,0.0,1.0,l1_eng,4.9324135813698655,-1.5956122973509013
263e3ef025c977,eir057,2,2,37,https://d3uxfe7dw0hhy7.cloudfront.net/annie-helms/new_catalan/F2_dur5,482,5,OK,pondis,915,pen,F2_dur5,2.0,3.0,5.0,-1.0,0.0,2.0,l1_eng,4.9324135813698655,-1.5956122973509013
263e3ef025c977,eir057,2,2,38,https://d3uxfe7dw0hhy7.cloudfront.net/annie-helms/new_catalan/st3_dur5,472,5,OK,pondis,818,pen,st3_dur5,3.0,3.0,5.0,0.0,0.0,2.0,l1_eng,4.9324135813698655,-1.5956122973509013
263e3ef025c977,eir057,2,2,39,https://d3uxfe7dw0hhy7.cloudfront.net/annie-helms/new_catalan/st2_dur3,479,5,OK,pondis,903,pen,st2_dur3,3.0,2.0,3.0,0.0,-1.0,0.0,l1_eng,4.9324135813698655,-1.5956122973509013
263e3ef025c977,eir057,2,2,40,https://d3uxfe7dw0hhy7.cloudfront.net/annie-helms/new_catalan/st5_dur2,481,5,OK,pondis,1154,pen,st5_dur2,3.0,5.0,2.0,0.0,2.0,-1.0,l1_eng,4.9324135813698655,-1.5956122973509013
263e3ef025c977,eir057,2,2,41,https://d3uxfe7dw0hhy7.cloudfront.net/annie-helms/new_catalan/F3_st2,461,5,OK,pondis,1060,pen,F3_st2,3.0,2.0,3.0,0.0,-1.0,0.0,l1_eng,4.9324135813698655,-1.5956122973509013
263e3ef025c977,eir057,2,2,42,https://d3uxfe7dw0hhy7.cloudfront.net/annie-helms/new_catalan/F3_dur5,472,5,OK,pondis,907,pen,F3_dur5,3.0,3.0,5.0,0.0,0.0,2.0,l1_eng,4.9324135813698655,-1.5956122973509013
263e3ef025c977,eir057,2,2,43,https://d3uxfe7dw0hhy7.cloudfront.net/annie-helms/new_catalan/st3_dur3,479,5,OK,pondis,1316,pen,st3_dur3,3.0,3.0,3.0,0.0,0.0,0.0,l1_eng,4.9324135813698655,-1.5956122973509013
263e3ef025c977,eir057,2,2,44,https://d3uxfe7dw0hhy7.cloudfront.net/annie-helms/new_catalan/st4_dur2,481,10,OK,pondis,1050,pen,st4_dur2,3.0,4.0,2.0,0.0,1.0,-1.0,l1_eng,4.9324135813698655,-1.5956122973509013
263e3ef025c977,eir057,2,2,45,https://d3uxfe7dw0hhy7.cloudfront.net/annie-helms/new_catalan/F4_st3,461,5,OK,pondis,892,pen,F4_st3,4.0,3.0,3.0,1.0,0.0,0.0,l1_eng,4.9324135813698655,-1.5956122973509013
263e3ef025c977,eir057,2,2,46,https://d3uxfe7dw0hhy7.cloudfront.net/annie-helms/new_catalan/st3_dur2,481,5,OK,pondis,1016,pen,st3_dur2,3.0,3.0,2.0,0.0,0.0,-1.0,l1_eng,4.9324135813698655,-1.5956122973509013
263e3ef025c977,eir057,2,2,47,https://d3uxfe7dw0hhy7.cloudfront.net/annie-helms/new_catalan/F2_st4,471,5,OK,pondis,997,pen,F2_st4,2.0,4.0,3.0,-1.0,1.0,0.0,l1_eng,4.9324135813698655,-1.5956122973509013
263e3ef025c977,eir057,2,2,48,https://d3uxfe7dw0hhy7.cloudfront.net/annie-helms/new_catalan/F5_dur3,491,5,OK,pondis,972,pen,F5_dur3,5.0,3.0,3.0,2.0,0.0,0.0,l1_eng,4.9324135813698655,-1.5956122973509013
263e3ef025c977,eir057,2,2,49,https://d3uxfe7dw0hhy7.cloudfront.net/annie-helms/new_catalan/st2_dur1,484,10,OK,pondis,1089,pen,st2_dur1,3.0,2.0,1.0,0.0,-1.0,-2.0,l1_eng,4.9324135813698655,-1.5956122973509013
263e3ef025c977,eir057,2,2,50,https://d3uxfe7dw0hhy7.cloudfront.net/annie-helms/new_catalan/st2_dur2,481,5,OK,pondis,1331,pen,st2_dur2,3.0,2.0,2.0,0.0,-1.0,-1.0,l1_eng,4.9324135813698655,-1.5956122973509013
263e3ef025c977,eir057,2,2,51,https://d3uxfe7dw0hhy7.cloudfront.net/annie-helms/new_catalan/F5_dur1,497,5,OK,pondis,939,pen,F5_dur1,5.0,3.0,1.0,2.0,0.0,-2.0,l1_eng,4.9324135813698655,-1.5956122973509013
263e3ef025c977,eir057,2,2,52,https://d3uxfe7dw0hhy7.cloudfront.net/annie-helms/new_catalan/F5_st3,473,5,OK,pondis,907,pen,F5_st3,5.0,3.0,3.0,2.0,0.0,0.0,l1_eng,4.9324135813698655,-1.5956122973509013
263e3ef025c977,eir057,2,2,53,https://d3uxfe7dw0hhy7.cloudfront.net/annie-helms/new_catalan/F5_dur2,493,5,OK,pondis,989,pen,F5_dur2,5.0,3.0,2.0,2.0,0.0,-1.0,l1_eng,4.9324135813698655,-1.5956122973509013
263e3ef025c977,eir057,2,2,54,https://d3uxfe7dw0hhy7.cloudfront.net/annie-helms/new_catalan/F2_dur3,489,5,OK,pondis,1140,pen,F2_dur3,2.0,3.0,3.0,-1.0,0.0,0.0,l1_eng,4.9324135813698655,-1.5956122973509013
263e3ef025c977,eir057,2,2,55,https://d3uxfe7dw0hhy7.cloudfront.net/annie-helms/new_catalan/F4_dur2,482,5,OK,pondis,1090,pen,F4_dur2,4.0,3.0,2.0,1.0,0.0,-1.0,l1_eng,4.9324135813698655,-1.5956122973509013
263e3ef025c977,eir057,2,2,56,https://d3uxfe7dw0hhy7.cloudfront.net/annie-helms/new_catalan/F4_st2,461,5,OK,pondis,923,pen,F4_st2,4.0,2.0,3.0,1.0,-1.0,0.0,l1_eng,4.9324135813698655,-1.5956122973509013
263e3ef025c977,eir057,2,2,57,https://d3uxfe7dw0hhy7.cloudfront.net/annie-helms/new_catalan/F4_st4,461,5,OK,pondis,1110,pen,F4_st4,4.0,4.0,3.0,1.0,1.0,0.0,l1_eng,4.9324135813698655,-1.5956122973509013
263e3ef025c977,eir057,2,2,58,https://d3uxfe7dw0hhy7.cloudfront.net/annie-helms/new_catalan/F2_st1,471,5,OK,pondis,1573,pen,F2_st1,2.0,1.0,3.0,-1.0,-2.0,0.0,l1_eng,4.9324135813698655,-1.5956122973509013
263e3ef025c977,eir057,2,2,59,https://d3uxfe7dw0hhy7.cloudfront.net/annie-helms/new_catalan/st1_dur1,484,5,OK,pondís,2148,ult,st1_dur1,3.0,1.0,1.0,0.0,-2.0,-2.0,l1_eng,4.9324135813698655,-1.5956122973509013
263e3ef025c977,eir057,2,2,60,https://d3uxfe7dw0hhy7.cloudfront.net/annie-helms/new_catalan/F2_dur1,495,5,OK,pondis,1037,pen,F2_dur1,2.0,3.0,1.0,-1.0,0.0,-2.0,l1_eng,4.9324135813698655,-1.5956122973509013
263e3ef025c977,eir057,2,2,62,https://d3uxfe7dw0hhy7.cloudfront.net/annie-helms/new_catalan/F3_st4,461,5,OK,pondis,1668,pen,F3_st4,3.0,4.0,3.0,0.0,1.0,0.0,l1_eng,4.9324135813698655,-1.5956122973509013
263e3ef025c977,eir057,2,2,63,https://d3uxfe7dw0hhy7.cloudfront.net/annie-helms/new_catalan/F3_dur1,485,5,OK,pondis,1587,pen,F3_dur1,3.0,3.0,1.0,0.0,0.0,-2.0,l1_eng,4.9324135813698655,-1.5956122973509013
263e3ef025c977,eir057,2,2,64,https://d3uxfe7dw0hhy7.cloudfront.net/annie-helms/new_catalan/F1_st2,471,5,OK,pondis,1630,pen,F1_st2,1.0,2.0,3.0,-2.0,-1.0,0.0,l1_eng,4.9324135813698655,-1.5956122973509013
263e3ef025c977,eir057,2,2,65,https://d3uxfe7dw0hhy7.cloudfront.net/annie-helms/new_catalan/F3_st3,461,5,OK,pondis,971,pen,F3_st3,3.0,3.0,3.0,0.0,0.0,0.0,l1_eng,4.9324135813698655,-1.5956122973509013
263e3ef025c977,eir057,2,2,66,https://d3uxfe7dw0hhy7.cloudfront.net/annie-helms/new_catalan/F2_dur2,492,10,OK,pondis,956,pen,F2_dur2,2.0,3.0,2.0,-1.0,0.0,-1.0,l1_eng,4.9324135813698655,-1.5956122973509013
263e3ef025c977,eir057,2,2,67,https://d3uxfe7dw0hhy7.cloudfront.net/annie-helms/new_catalan/F3_dur2,482,5,OK,pondis,988,pen,F3_dur2,3.0,3.0,2.0,0.0,0.0,-1.0,l1_eng,4.9324135813698655,-1.5956122973509013
263e3ef025c977,eir057,2,2,68,https://d3uxfe7dw0hhy7.cloudfront.net/annie-helms/new_catalan/st1_dur4,475,5,OK,pondis,1044,pen,st1_dur4,3.0,1.0,4.0,0.0,-2.0,1.0,l1_eng,4.9324135813698655,-1.5956122973509013
263e3ef025c977,eir057,2,2,69,https://d3uxfe7dw0hhy7.cloudfront.net/annie-helms/new_catalan/st5_dur3,479,5,OK,pondis,962,pen,st5_dur3,3.0,5.0,3.0,0.0,2.0,0.0,l1_eng,4.9324135813698655,-1.5956122973509013
263e3ef025c977,eir057,2,2,70,https://d3uxfe7dw0hhy7.cloudfront.net/annie-helms/new_catalan/st4_dur1,484,10,OK,pondis,895,pen,st4_dur1,3.0,4.0,1.0,0.0,1.0,-2.0,l1_eng,4.9324135813698655,-1.5956122973509013
263e3ef025c977,eir057,2,2,71,https://d3uxfe7dw0hhy7.cloudfront.net/annie-helms/new_catalan/F1_st4,471,5,OK,pondis,869,pen,F1_st4,1.0,4.0,3.0,-2.0,1.0,0.0,l1_eng,4.9324135813698655,-1.5956122973509013
263e3ef025c977,eir057,2,2,72,https://d3uxfe7dw0hhy7.cloudfront.net/annie-helms/new_catalan/F1_st1,471,5,OK,pondis,1058,pen,F1_st1,1.0,1.0,3.0,-2.0,-2.0,0.0,l1_eng,4.9324135813698655,-1.5956122973509013
263e3ef025c977,eir057,2,2,73,https://d3uxfe7dw0hhy7.cloudfront.net/annie-helms/new_catalan/st1_dur3,479,10,OK,pondis,944,pen,st1_dur3,3.0,1.0,3.0,0.0,-2.0,0.0,l1_eng,4.9324135813698655,-1.5956122973509013
263e3ef025c977,eir057,2,2,74,https://d3uxfe7dw0hhy7.cloudfront.net/annie-helms/new_catalan/st4_dur3,479,5,OK,pondis,1419,pen,st4_dur3,3.0,4.0,3.0,0.0,1.0,0.0,l1_eng,4.9324135813698655,-1.5956122973509013
263e657cacc04e,ala059,2,1,2,https://d3uxfe7dw0hhy7.cloudfront.net/annie-helms/new_catalan/st4_dur5,472,20,OK,pondís,1842,ult,st4_dur5,3.0,4.0,5.0,0.0,1.0,2.0,l3_eng,-2.5142055322180346,-3.8533627737632985
263e657cacc04e,ala059,2,1,3,https://d3uxfe7dw0hhy7.cloudfront.net/annie-helms/new_catalan/F2_dur3,489,20,OK,pondís,1367,ult,F2_dur3,2.0,3.0,3.0,-1.0,0.0,0.0,l3_eng,-2.5142055322180346,-3.8533627737632985
263e657cacc04e,ala059,2,1,4,https://d3uxfe7dw0hhy7.cloudfront.net/annie-helms/new_catalan/F2_st4,471,20,OK,pondís,1031,ult,F2_st4,2.0,4.0,3.0,-1.0,1.0,0.0,l3_eng,-2.5142055322180346,-3.8533627737632985
263e657cacc04e,ala059,2,1,5,https://d3uxfe7dw0hhy7.cloudfront.net/annie-helms/new_catalan/st4_dur1,484,20,OK,pondís,1126,ult,st4_dur1,3.0,4.0,1.0,0.0,1.0,-2.0,l3_eng,-2.5142055322180346,-3.8533627737632985
263e657cacc04e,ala059,2,1,6,https://d3uxfe7dw0hhy7.cloudfront.net/annie-helms/new_catalan/F4_dur1,485,15,OK,pondís,1164,ult,F4_dur1,4.0,3.0,1.0,1.0,0.0,-2.0,l3_eng,-2.5142055322180346,-3.8533627737632985
263e657cacc04e,ala059,2,1,7,https://d3uxfe7dw0hhy7.cloudfront.net/annie-helms/new_catalan/F2_dur2,492,25,OK,pondís,1115,ult,F2_dur2,2.0,3.0,2.0,-1.0,0.0,-1.0,l3_eng,-2.5142055322180346,-3.8533627737632985
263e657cacc04e,ala059,2,1,8,https://d3uxfe7dw0hhy7.cloudfront.net/annie-helms/new_catalan/st2_dur4,475,20,OK,pondís,1234,ult,st2_dur4,3.0,2.0,4.0,0.0,-1.0,1.0,l3_eng,-2.5142055322180346,-3.8533627737632985
263e657cacc04e,ala059,2,1,9,https://d3uxfe7dw0hhy7.cloudfront.net/annie-helms/new_catalan/F4_st2,461,15,OK,pondís,1091,ult,F4_st2,4.0,2.0,3.0,1.0,-1.0,0.0,l3_eng,-2.5142055322180346,-3.8533627737632985
263e657cacc04e,ala059,2,1,10,https://d3uxfe7dw0hhy7.cloudfront.net/annie-helms/new_catalan/st5_dur2,481,25,OK,pondís,1116,ult,st5_dur2,3.0,5.0,2.0,0.0,2.0,-1.0,l3_eng,-2.5142055322180346,-3.8533627737632985
263e657cacc04e,ala059,2,1,11,https://d3uxfe7dw0hhy7.cloudfront.net/annie-helms/new_catalan/st2_dur5,472,20,OK,pondís,1103,ult,st2_dur5,3.0,2.0,5.0,0.0,-1.0,2.0,l3_eng,-2.5142055322180346,-3.8533627737632985
263e657cacc04e,ala059,2,1,12,https://d3uxfe7dw0hhy7.cloudfront.net/annie-helms/new_catalan/st2_dur2,481,20,OK,pondís,1033,ult,st2_dur2,3.0,2.0,2.0,0.0,-1.0,-1.0,l3_eng,-2.5142055322180346,-3.8533627737632985
263e657cacc04e,ala059,2,1,13,https://d3uxfe7dw0hhy7.cloudfront.net/annie-helms/new_catalan/F5_dur1,497,20,OK,pondís,1107,ult,F5_dur1,5.0,3.0,1.0,2.0,0.0,-2.0,l3_eng,-2.5142055322180346,-3.8533627737632985
263e657cacc04e,ala059,2,1,14,https://d3uxfe7dw0hhy7.cloudfront.net/annie-helms/new_catalan/st2_dur3,479,25,OK,pondís,1692,ult,st2_dur3,3.0,2.0,3.0,0.0,-1.0,0.0,l3_eng,-2.5142055322180346,-3.8533627737632985
263e657cacc04e,ala059,2,1,15,https://d3uxfe7dw0hhy7.cloudfront.net/annie-helms/new_catalan/F5_st2,473,15,OK,pondís,1191,ult,F5_st2,5.0,2.0,3.0,2.0,-1.0,0.0,l3_eng,-2.5142055322180346,-3.8533627737632985
263e657cacc04e,ala059,2,1,16,https://d3uxfe7dw0hhy7.cloudfront.net/annie-helms/new_catalan/st5_dur1,484,20,OK,pondís,1177,ult,st5_dur1,3.0,5.0,1.0,0.0,2.0,-2.0,l3_eng,-2.5142055322180346,-3.8533627737632985
263e657cacc04e,ala059,2,1,17,https://d3uxfe7dw0hhy7.cloudfront.net/annie-helms/new_catalan/F4_st5,461,20,OK,pondís,1360,ult,F4_st5,4.0,5.0,3.0,1.0,2.0,0.0,l3_eng,-2.5142055322180346,-3.8533627737632985
263e657cacc04e,ala059,2,1,18,https://d3uxfe7dw0hhy7.cloudfront.net/annie-helms/new_catalan/st1_dur2,481,20,OK,pondís,1647,ult,st1_dur2,3.0,1.0,2.0,0.0,-2.0,-1.0,l3_eng,-2.5142055322180346,-3.8533627737632985
263e657cacc04e,ala059,2,1,19,https://d3uxfe7dw0hhy7.cloudfront.net/annie-helms/new_catalan/F2_st3,471,15,OK,pondís,1578,ult,F2_st3,2.0,3.0,3.0,-1.0,0.0,0.0,l3_eng,-2.5142055322180346,-3.8533627737632985
263e657cacc04e,ala059,2,1,20,https://d3uxfe7dw0hhy7.cloudfront.net/annie-helms/new_catalan/st3_dur2,481,20,OK,pondís,1752,ult,st3_dur2,3.0,3.0,2.0,0.0,0.0,-1.0,l3_eng,-2.5142055322180346,-3.8533627737632985
263e657cacc04e,ala059,2,1,21,https://d3uxfe7dw0hhy7.cloudfront.net/annie-helms/new_catalan/F5_st1,473,20,OK,pondís,1061,ult,F5_st1,5.0,1.0,3.0,2.0,-2.0,0.0,l3_eng,-2.5142055322180346,-3.8533627737632985
263e657cacc04e,ala059,2,1,22,https://d3uxfe7dw0hhy7.cloudfront.net/annie-helms/new_catalan/F1_dur3,488,15,OK,pondis,1237,pen,F1_dur3,1.0,3.0,3.0,-2.0,0.0,0.0,l3_eng,-2.5142055322180346,-3.8533627737632985
263e657cacc04e,ala059,2,1,23,https://d3uxfe7dw0hhy7.cloudfront.net/annie-helms/new_catalan/F5_dur5,484,40,OK,pondis,1227,pen,F5_dur5,5.0,3.0,5.0,2.0,0.0,2.0,l3_eng,-2.5142055322180346,-3.8533627737632985
263e657cacc04e,ala059,2,1,24,https://d3uxfe7dw0hhy7.cloudfront.net/annie-helms/new_catalan/F4_st1,461,35,OK,pondís,1823,ult,F4_st1,4.0,1.0,3.0,1.0,-2.0,0.0,l3_eng,-2.5142055322180346,-3.8533627737632985
263e657cacc04e,ala059,2,1,25,https://d3uxfe7dw0hhy7.cloudfront.net/annie-helms/new_catalan/F3_dur5,472,20,OK,pondís,1146,ult,F3_dur5,3.0,3.0,5.0,0.0,0.0,2.0,l3_eng,-2.5142055322180346,-3.8533627737632985
263e657cacc04e,ala059,2,1,26,https://d3uxfe7dw0hhy7.cloudfront.net/annie-helms/new_catalan/F5_st5,473,15,OK,pondis,2219,pen,F5_st5,5.0,5.0,3.0,2.0,2.0,0.0,l3_eng,-2.5142055322180346,-3.8533627737632985
263e657cacc04e,ala059,2,1,27,https://d3uxfe7dw0hhy7.cloudfront.net/annie-helms/new_catalan/F5_st4,473,20,OK,pondis,1332,pen,F5_st4,5.0,4.0,3.0,2.0,1.0,0.0,l3_eng,-2.5142055322180346,-3.8533627737632985
263e657cacc04e,ala059,2,1,28,https://d3uxfe7dw0hhy7.cloudfront.net/annie-helms/new_catalan/F5_st3,473,20,OK,pondis,1069,pen,F5_st3,5.0,3.0,3.0,2.0,0.0,0.0,l3_eng,-2.5142055322180346,-3.8533627737632985
263e657cacc04e,ala059,2,1,29,https://d3uxfe7dw0hhy7.cloudfront.net/annie-helms/new_catalan/F4_st3,461,25,OK,pondis,1796,pen,F4_st3,4.0,3.0,3.0,1.0,0.0,0.0,l3_eng,-2.5142055322180346,-3.8533627737632985
263e657cacc04e,ala059,2,1,30,https://d3uxfe7dw0hhy7.cloudfront.net/annie-helms/new_catalan/F1_dur1,494,20,OK,pondis,2366,pen,F1_dur1,1.0,3.0,1.0,-2.0,0.0,-2.0,l3_eng,-2.5142055322180346,-3.8533627737632985
263e657cacc04e,ala059,2,1,31,https://d3uxfe7dw0hhy7.cloudfront.net/annie-helms/new_catalan/F3_dur1,485,15,OK,pondis,1724,pen,F3_dur1,3.0,3.0,1.0,0.0,0.0,-2.0,l3_eng,-2.5142055322180346,-3.8533627737632985
263e657cacc04e,ala059,2,1,32,https://d3uxfe7dw0hhy7.cloudfront.net/annie-helms/new_catalan/st3_dur4,475,15,OK,pondis,995,pen,st3_dur4,3.0,3.0,4.0,0.0,0.0,1.0,l3_eng,-2.5142055322180346,-3.8533627737632985
263e657cacc04e,ala059,2,1,33,https://d3uxfe7dw0hhy7.cloudfront.net/annie-helms/new_catalan/st3_dur1,484,20,OK,pondis,1267,pen,st3_dur1,3.0,3.0,1.0,0.0,0.0,-2.0,l3_eng,-2.5142055322180346,-3.8533627737632985
263e657cacc04e,ala059,2,1,34,https://d3uxfe7dw0hhy7.cloudfront.net/annie-helms/new_catalan/st1_dur3,479,20,OK,pondís,1499,ult,st1_dur3,3.0,1.0,3.0,0.0,-2.0,0.0,l3_eng,-2.5142055322180346,-3.8533627737632985
263e657cacc04e,ala059,2,1,36,https://d3uxfe7dw0hhy7.cloudfront.net/annie-helms/new_catalan/st1_dur1,484,20,OK,pondís,1629,ult,st1_dur1,3.0,1.0,1.0,0.0,-2.0,-2.0,l3_eng,-2.5142055322180346,-3.8533627737632985
263e657cacc04e,ala059,2,1,37,https://d3uxfe7dw0hhy7.cloudfront.net/annie-helms/new_catalan/F3_dur4,475,15,OK,pondis,2129,pen,F3_dur4,3.0,3.0,4.0,0.0,0.0,1.0,l3_eng,-2.5142055322180346,-3.8533627737632985
263e657cacc04e,ala059,2,1,38,https://d3uxfe7dw0hhy7.cloudfront.net/annie-helms/new_catalan/st1_dur4,475,20,OK,pondis,1901,pen,st1_dur4,3.0,1.0,4.0,0.0,-2.0,1.0,l3_eng,-2.5142055322180346,-3.8533627737632985
263e657cacc04e,ala059,2,1,39,https://d3uxfe7dw0hhy7.cloudfront.net/annie-helms/new_catalan/F1_st2,471,20,OK,pondis,1510,pen,F1_st2,1.0,2.0,3.0,-2.0,-1.0,0.0,l3_eng,-2.5142055322180346,-3.8533627737632985
263e657cacc04e,ala059,2,1,40,https://d3uxfe7dw0hhy7.cloudfront.net/annie-helms/new_catalan/F1_dur4,485,15,OK,pondis,1236,pen,F1_dur4,1.0,3.0,4.0,-2.0,0.0,1.0,l3_eng,-2.5142055322180346,-3.8533627737632985
263e657cacc04e,ala059,2,1,41,https://d3uxfe7dw0hhy7.cloudfront.net/annie-helms/new_catalan/st5_dur3,479,15,OK,pondis,1199,pen,st5_dur3,3.0,5.0,3.0,0.0,2.0,0.0,l3_eng,-2.5142055322180346,-3.8533627737632985
263e657cacc04e,ala059,2,1,42,https://d3uxfe7dw0hhy7.cloudfront.net/annie-helms/new_catalan/F1_dur2,491,20,OK,pondis,1124,pen,F1_dur2,1.0,3.0,2.0,-2.0,0.0,-1.0,l3_eng,-2.5142055322180346,-3.8533627737632985
263e657cacc04e,ala059,2,1,43,https://d3uxfe7dw0hhy7.cloudfront.net/annie-helms/new_catalan/F1_dur5,482,20,OK,pondis,1340,pen,F1_dur5,1.0,3.0,5.0,-2.0,0.0,2.0,l3_eng,-2.5142055322180346,-3.8533627737632985
263e657cacc04e,ala059,2,1,44,https://d3uxfe7dw0hhy7.cloudfront.net/annie-helms/new_catalan/F3_st1,461,20,OK,pondis,2045,pen,F3_st1,3.0,1.0,3.0,0.0,-2.0,0.0,l3_eng,-2.5142055322180346,-3.8533627737632985
263e657cacc04e,ala059,2,1,45,https://d3uxfe7dw0hhy7.cloudfront.net/annie-helms/new_catalan/F2_dur1,495,20,OK,pondis,1413,pen,F2_dur1,2.0,3.0,1.0,-1.0,0.0,-2.0,l3_eng,-2.5142055322180346,-3.8533627737632985
263e657cacc04e,ala059,2,1,46,https://d3uxfe7dw0hhy7.cloudfront.net/annie-helms/new_catalan/F3_st4,461,15,OK,pondís,1543,ult,F3_st4,3.0,4.0,3.0,0.0,1.0,0.0,l3_eng,-2.5142055322180346,-3.8533627737632985
263e657cacc04e,ala059,2,1,47,https://d3uxfe7dw0hhy7.cloudfront.net/annie-helms/new_catalan/F2_st5,471,10,OK,pondis,1663,pen,F2_st5,2.0,5.0,3.0,-1.0,2.0,0.0,l3_eng,-2.5142055322180346,-3.8533627737632985
263e657cacc04e,ala059,2,1,48,https://d3uxfe7dw0hhy7.cloudfront.net/annie-helms/new_catalan/F1_st5,471,25,OK,pondis,1084,pen,F1_st5,1.0,5.0,3.0,-2.0,2.0,0.0,l3_eng,-2.5142055322180346,-3.8533627737632985
263e657cacc04e,ala059,2,1,49,https://d3uxfe7dw0hhy7.cloudfront.net/annie-helms/new_catalan/st3_dur3,479,20,OK,pondís,1170,ult,st3_dur3,3.0,3.0,3.0,0.0,0.0,0.0,l3_eng,-2.5142055322180346,-3.8533627737632985
263e657cacc04e,ala059,2,1,50,https://d3uxfe7dw0hhy7.cloudfront.net/annie-helms/new_catalan/F1_st4,471,20,OK,pondís,1198,ult,F1_st4,1.0,4.0,3.0,-2.0,1.0,0.0,l3_eng,-2.5142055322180346,-3.8533627737632985
263e657cacc04e,ala059,2,1,51,https://d3uxfe7dw0hhy7.cloudfront.net/annie-helms/new_catalan/F4_dur5,472,20,OK,pondís,1040,ult,F4_dur5,4.0,3.0,5.0,1.0,0.0,2.0,l3_eng,-2.5142055322180346,-3.8533627737632985
263e657cacc04e,ala059,2,1,52,https://d3uxfe7dw0hhy7.cloudfront.net/annie-helms/new_catalan/st4_dur4,475,20,OK,pondís,1142,ult,st4_dur4,3.0,4.0,4.0,0.0,1.0,1.0,l3_eng,-2.5142055322180346,-3.8533627737632985
263e657cacc04e,ala059,2,1,53,https://d3uxfe7dw0hhy7.cloudfront.net/annie-helms/new_catalan/st4_dur2,481,20,OK,pondís,1111,ult,st4_dur2,3.0,4.0,2.0,0.0,1.0,-1.0,l3_eng,-2.5142055322180346,-3.8533627737632985
263e657cacc04e,ala059,2,1,54,https://d3uxfe7dw0hhy7.cloudfront.net/annie-helms/new_catalan/F5_dur4,487,25,OK,pondís,1184,ult,F5_dur4,5.0,3.0,4.0,2.0,0.0,1.0,l3_eng,-2.5142055322180346,-3.8533627737632985
263e657cacc04e,ala059,2,1,55,https://d3uxfe7dw0hhy7.cloudfront.net/annie-helms/new_catalan/F3_st3,461,20,OK,pondís,1511,ult,F3_st3,3.0,3.0,3.0,0.0,0.0,0.0,l3_eng,-2.5142055322180346,-3.8533627737632985
263e657cacc04e,ala059,2,1,56,https://d3uxfe7dw0hhy7.cloudfront.net/annie-helms/new_catalan/st4_dur3,479,15,OK,pondís,1296,ult,st4_dur3,3.0,4.0,3.0,0.0,1.0,0.0,l3_eng,-2.5142055322180346,-3.8533627737632985
263e657cacc04e,ala059,2,1,57,https://d3uxfe7dw0hhy7.cloudfront.net/annie-helms/new_catalan/st5_dur4,475,20,OK,pondís,1526,ult,st5_dur4,3.0,5.0,4.0,0.0,2.0,1.0,l3_eng,-2.5142055322180346,-3.8533627737632985
263e657cacc04e,ala059,2,1,58,https://d3uxfe7dw0hhy7.cloudfront.net/annie-helms/new_catalan/F5_dur2,493,25,OK,pondis,1964,pen,F5_dur2,5.0,3.0,2.0,2.0,0.0,-1.0,l3_eng,-2.5142055322180346,-3.8533627737632985
263e657cacc04e,ala059,2,1,59,https://d3uxfe7dw0hhy7.cloudfront.net/annie-helms/new_catalan/F2_dur4,485,20,OK,pondis,1684,pen,F2_dur4,2.0,3.0,4.0,-1.0,0.0,1.0,l3_eng,-2.5142055322180346,-3.8533627737632985
263e657cacc04e,ala059,2,1,60,https://d3uxfe7dw0hhy7.cloudfront.net/annie-helms/new_catalan/st1_dur5,472,20,OK,pondís,1065,ult,st1_dur5,3.0,1.0,5.0,0.0,-2.0,2.0,l3_eng,-2.5142055322180346,-3.8533627737632985
263e657cacc04e,ala059,2,1,61,https://d3uxfe7dw0hhy7.cloudfront.net/annie-helms/new_catalan/F4_dur2,482,20,OK,pondis,1735,pen,F4_dur2,4.0,3.0,2.0,1.0,0.0,-1.0,l3_eng,-2.5142055322180346,-3.8533627737632985
263e657cacc04e,ala059,2,1,62,https://d3uxfe7dw0hhy7.cloudfront.net/annie-helms/new_catalan/F5_dur3,491,20,OK,pondis,1917,pen,F5_dur3,5.0,3.0,3.0,2.0,0.0,0.0,l3_eng,-2.5142055322180346,-3.8533627737632985
263e657cacc04e,ala059,2,1,64,https://d3uxfe7dw0hhy7.cloudfront.net/annie-helms/new_catalan/F3_dur2,482,20,OK,pondís,1424,ult,F3_dur2,3.0,3.0,2.0,0.0,0.0,-1.0,l3_eng,-2.5142055322180346,-3.8533627737632985
263e657cacc04e,ala059,2,1,65,https://d3uxfe7dw0hhy7.cloudfront.net/annie-helms/new_catalan/F3_st2,461,15,OK,pondís,1619,ult,F3_st2,3.0,2.0,3.0,0.0,-1.0,0.0,l3_eng,-2.5142055322180346,-3.8533627737632985
263e657cacc04e,ala059,2,1,66,https://d3uxfe7dw0hhy7.cloudfront.net/annie-helms/new_catalan/F1_st3,471,20,OK,pondis,2247,pen,F1_st3,1.0,3.0,3.0,-2.0,0.0,0.0,l3_eng,-2.5142055322180346,-3.8533627737632985
263e657cacc04e,ala059,2,1,67,https://d3uxfe7dw0hhy7.cloudfront.net/annie-helms/new_catalan/st5_dur5,472,25,OK,pondís,2144,ult,st5_dur5,3.0,5.0,5.0,0.0,2.0,2.0,l3_eng,-2.5142055322180346,-3.8533627737632985
263e657cacc04e,ala059,2,1,68,https://d3uxfe7dw0hhy7.cloudfront.net/annie-helms/new_catalan/F2_dur5,482,20,OK,pondis,1544,pen,F2_dur5,2.0,3.0,5.0,-1.0,0.0,2.0,l3_eng,-2.5142055322180346,-3.8533627737632985
263e657cacc04e,ala059,2,1,69,https://d3uxfe7dw0hhy7.cloudfront.net/annie-helms/new_catalan/st3_dur5,472,15,OK,pondís,1975,ult,st3_dur5,3.0,3.0,5.0,0.0,0.0,2.0,l3_eng,-2.5142055322180346,-3.8533627737632985
263e657cacc04e,ala059,2,1,70,https://d3uxfe7dw0hhy7.cloudfront.net/annie-helms/new_catalan/F4_dur3,479,15,OK,pondís,1589,ult,F4_dur3,4.0,3.0,3.0,1.0,0.0,0.0,l3_eng,-2.5142055322180346,-3.8533627737632985
263e657cacc04e,ala059,2,1,71,https://d3uxfe7dw0hhy7.cloudfront.net/annie-helms/new_catalan/F4_dur4,475,25,OK,pondís,1937,ult,F4_dur4,4.0,3.0,4.0,1.0,0.0,1.0,l3_eng,-2.5142055322180346,-3.8533627737632985
263e657cacc04e,ala059,2,1,72,https://d3uxfe7dw0hhy7.cloudfront.net/annie-helms/new_catalan/F3_dur3,479,15,OK,pondís,1643,ult,F3_dur3,3.0,3.0,3.0,0.0,0.0,0.0,l3_eng,-2.5142055322180346,-3.8533627737632985
263e657cacc04e,ala059,2,1,73,https://d3uxfe7dw0hhy7.cloudfront.net/annie-helms/new_catalan/F3_st5,461,20,OK,pondís,1556,ult,F3_st5,3.0,5.0,3.0,0.0,2.0,0.0,l3_eng,-2.5142055322180346,-3.8533627737632985
263e657cacc04e,ala059,2,1,74,https://d3uxfe7dw0hhy7.cloudfront.net/annie-helms/new_catalan/F4_st4,461,15,OK,pondis,1000,pen,F4_st4,4.0,4.0,3.0,1.0,1.0,0.0,l3_eng,-2.5142055322180346,-3.8533627737632985
263e657cacc04e,ala059,2,2,0,https://d3uxfe7dw0hhy7.cloudfront.net/annie-helms/new_catalan/st4_dur4,475,20,OK,pondís,1018,ult,st4_dur4,3.0,4.0,4.0,0.0,1.0,1.0,l3_eng,-2.5142055322180346,-3.8533627737632985
263e657cacc04e,ala059,2,2,2,https://d3uxfe7dw0hhy7.cloudfront.net/annie-helms/new_catalan/F2_dur5,482,15,OK,pondis,1043,pen,F2_dur5,2.0,3.0,5.0,-1.0,0.0,2.0,l3_eng,-2.5142055322180346,-3.8533627737632985
263e657cacc04e,ala059,2,2,3,https://d3uxfe7dw0hhy7.cloudfront.net/annie-helms/new_catalan/F5_st3,473,20,OK,pondis,1101,pen,F5_st3,5.0,3.0,3.0,2.0,0.0,0.0,l3_eng,-2.5142055322180346,-3.8533627737632985
263e657cacc04e,ala059,2,2,4,https://d3uxfe7dw0hhy7.cloudfront.net/annie-helms/new_catalan/st3_dur3,479,15,OK,pondis,1105,pen,st3_dur3,3.0,3.0,3.0,0.0,0.0,0.0,l3_eng,-2.5142055322180346,-3.8533627737632985
263e657cacc04e,ala059,2,2,5,https://d3uxfe7dw0hhy7.cloudfront.net/annie-helms/new_catalan/F5_st5,473,20,OK,pondis,1033,pen,F5_st5,5.0,5.0,3.0,2.0,2.0,0.0,l3_eng,-2.5142055322180346,-3.8533627737632985
263e657cacc04e,ala059,2,2,6,https://d3uxfe7dw0hhy7.cloudfront.net/annie-helms/new_catalan/F3_dur2,482,20,OK,pondis,2043,pen,F3_dur2,3.0,3.0,2.0,0.0,0.0,-1.0,l3_eng,-2.5142055322180346,-3.8533627737632985
263e657cacc04e,ala059,2,2,7,https://d3uxfe7dw0hhy7.cloudfront.net/annie-helms/new_catalan/st2_dur1,484,15,OK,pondis,1619,pen,st2_dur1,3.0,2.0,1.0,0.0,-1.0,-2.0,l3_eng,-2.5142055322180346,-3.8533627737632985
263e657cacc04e,ala059,2,2,8,https://d3uxfe7dw0hhy7.cloudfront.net/annie-helms/new_catalan/st5_dur2,481,20,OK,pondis,1179,pen,st5_dur2,3.0,5.0,2.0,0.0,2.0,-1.0,l3_eng,-2.5142055322180346,-3.8533627737632985
263e657cacc04e,ala059,2,2,9,https://d3uxfe7dw0hhy7.cloudfront.net/annie-helms/new_catalan/F3_st5,461,30,OK,pondis,1048,pen,F3_st5,3.0,5.0,3.0,0.0,2.0,0.0,l3_eng,-2.5142055322180346,-3.8533627737632985
263e657cacc04e,ala059,2,2,10,https://d3uxfe7dw0hhy7.cloudfront.net/annie-helms/new_catalan/F1_st1,471,20,OK,pondis,1285,pen,F1_st1,1.0,1.0,3.0,-2.0,-2.0,0.0,l3_eng,-2.5142055322180346,-3.8533627737632985
263e657cacc04e,ala059,2,2,11,https://d3uxfe7dw0hhy7.cloudfront.net/annie-helms/new_catalan/F1_st4,471,20,OK,pondis,1231,pen,F1_st4,1.0,4.0,3.0,-2.0,1.0,0.0,l3_eng,-2.5142055322180346,-3.8533627737632985
263e657cacc04e,ala059,2,2,12,https://d3uxfe7dw0hhy7.cloudfront.net/annie-helms/new_catalan/F1_st2,471,15,OK,pondis,1328,pen,F1_st2,1.0,2.0,3.0,-2.0,-1.0,0.0,l3_eng,-2.5142055322180346,-3.8533627737632985
263e657cacc04e,ala059,2,2,13,https://d3uxfe7dw0hhy7.cloudfront.net/annie-helms/new_catalan/st1_dur3,479,20,OK,pondís,1099,ult,st1_dur3,3.0,1.0,3.0,0.0,-2.0,0.0,l3_eng,-2.5142055322180346,-3.8533627737632985
263e657cacc04e,ala059,2,2,14,https://d3uxfe7dw0hhy7.cloudfront.net/annie-helms/new_catalan/F5_st2,473,20,OK,pondís,1162,ult,F5_st2,5.0,2.0,3.0,2.0,-1.0,0.0,l3_eng,-2.5142055322180346,-3.8533627737632985
263e657cacc04e,ala059,2,2,15,https://d3uxfe7dw0hhy7.cloudfront.net/annie-helms/new_catalan/st5_dur5,472,20,OK,pondis,1264,pen,st5_dur5,3.0,5.0,5.0,0.0,2.0,2.0,l3_eng,-2.5142055322180346,-3.8533627737632985
263e657cacc04e,ala059,2,2,16,https://d3uxfe7dw0hhy7.cloudfront.net/annie-helms/new_catalan/st2_dur5,472,20,OK,pondís,1210,ult,st2_dur5,3.0,2.0,5.0,0.0,-1.0,2.0,l3_eng,-2.5142055322180346,-3.8533627737632985
263e657cacc04e,ala059,2,2,17,https://d3uxfe7dw0hhy7.cloudfront.net/annie-helms/new_catalan/F2_dur3,489,30,OK,pondís,959,ult,F2_dur3,2.0,3.0,3.0,-1.0,0.0,0.0,l3_eng,-2.5142055322180346,-3.8533627737632985
263e657cacc04e,ala059,2,2,18,https://d3uxfe7dw0hhy7.cloudfront.net/annie-helms/new_catalan/F5_dur1,497,20,OK,pondís,1055,ult,F5_dur1,5.0,3.0,1.0,2.0,0.0,-2.0,l3_eng,-2.5142055322180346,-3.8533627737632985
263e657cacc04e,ala059,2,2,19,https://d3uxfe7dw0hhy7.cloudfront.net/annie-helms/new_catalan/F3_dur3,479,20,OK,pondís,986,ult,F3_dur3,3.0,3.0,3.0,0.0,0.0,0.0,l3_eng,-2.5142055322180346,-3.8533627737632985
263e657cacc04e,ala059,2,2,20,https://d3uxfe7dw0hhy7.cloudfront.net/annie-helms/new_catalan/F3_st4,461,20,OK,pondís,1063,ult,F3_st4,3.0,4.0,3.0,0.0,1.0,0.0,l3_eng,-2.5142055322180346,-3.8533627737632985
263e657cacc04e,ala059,2,2,21,https://d3uxfe7dw0hhy7.cloudfront.net/annie-helms/new_catalan/F4_dur1,485,20,OK,pondís,1468,ult,F4_dur1,4.0,3.0,1.0,1.0,0.0,-2.0,l3_eng,-2.5142055322180346,-3.8533627737632985
263e657cacc04e,ala059,2,2,22,https://d3uxfe7dw0hhy7.cloudfront.net/annie-helms/new_catalan/st4_dur1,484,15,OK,pondis,909,pen,st4_dur1,3.0,4.0,1.0,0.0,1.0,-2.0,l3_eng,-2.5142055322180346,-3.8533627737632985
263e657cacc04e,ala059,2,2,23,https://d3uxfe7dw0hhy7.cloudfront.net/annie-helms/new_catalan/F4_st4,461,20,OK,pondis,1113,pen,F4_st4,4.0,4.0,3.0,1.0,1.0,0.0,l3_eng,-2.5142055322180346,-3.8533627737632985
263e657cacc04e,ala059,2,2,24,https://d3uxfe7dw0hhy7.cloudfront.net/annie-helms/new_catalan/F2_st4,471,20,OK,pondís,1163,ult,F2_st4,2.0,4.0,3.0,-1.0,1.0,0.0,l3_eng,-2.5142055322180346,-3.8533627737632985
263e657cacc04e,ala059,2,2,25,https://d3uxfe7dw0hhy7.cloudfront.net/annie-helms/new_catalan/F4_dur3,479,20,OK,pondís,998,ult,F4_dur3,4.0,3.0,3.0,1.0,0.0,0.0,l3_eng,-2.5142055322180346,-3.8533627737632985
263e657cacc04e,ala059,2,2,26,https://d3uxfe7dw0hhy7.cloudfront.net/annie-helms/new_catalan/st3_dur4,475,15,OK,pondís,1120,ult,st3_dur4,3.0,3.0,4.0,0.0,0.0,1.0,l3_eng,-2.5142055322180346,-3.8533627737632985
263e657cacc04e,ala059,2,2,27,https://d3uxfe7dw0hhy7.cloudfront.net/annie-helms/new_catalan/F2_st3,471,25,OK,pondis,1151,pen,F2_st3,2.0,3.0,3.0,-1.0,0.0,0.0,l3_eng,-2.5142055322180346,-3.8533627737632985
263e657cacc04e,ala059,2,2,28,https://d3uxfe7dw0hhy7.cloudfront.net/annie-helms/new_catalan/st1_dur4,475,35,OK,pondis,1008,pen,st1_dur4,3.0,1.0,4.0,0.0,-2.0,1.0,l3_eng,-2.5142055322180346,-3.8533627737632985
263e657cacc04e,ala059,2,2,29,https://d3uxfe7dw0hhy7.cloudfront.net/annie-helms/new_catalan/F1_dur5,482,15,OK,pondis,1494,pen,F1_dur5,1.0,3.0,5.0,-2.0,0.0,2.0,l3_eng,-2.5142055322180346,-3.8533627737632985
263e657cacc04e,ala059,2,2,30,https://d3uxfe7dw0hhy7.cloudfront.net/annie-helms/new_catalan/F1_dur2,491,20,OK,pondís,1192,ult,F1_dur2,1.0,3.0,2.0,-2.0,0.0,-1.0,l3_eng,-2.5142055322180346,-3.8533627737632985
263e657cacc04e,ala059,2,2,31,https://d3uxfe7dw0hhy7.cloudfront.net/annie-helms/new_catalan/F5_dur3,491,35,OK,pondís,1026,ult,F5_dur3,5.0,3.0,3.0,2.0,0.0,0.0,l3_eng,-2.5142055322180346,-3.8533627737632985
263e657cacc04e,ala059,2,2,32,https://d3uxfe7dw0hhy7.cloudfront.net/annie-helms/new_catalan/st3_dur2,481,20,OK,pondis,1685,pen,st3_dur2,3.0,3.0,2.0,0.0,0.0,-1.0,l3_eng,-2.5142055322180346,-3.8533627737632985
263e657cacc04e,ala059,2,2,33,https://d3uxfe7dw0hhy7.cloudfront.net/annie-helms/new_catalan/F1_st5,471,20,OK,pondís,1106,ult,F1_st5,1.0,5.0,3.0,-2.0,2.0,0.0,l3_eng,-2.5142055322180346,-3.8533627737632985
263e657cacc04e,ala059,2,2,34,https://d3uxfe7dw0hhy7.cloudfront.net/annie-helms/new_catalan/F4_st3,461,20,OK,pondís,1006,ult,F4_st3,4.0,3.0,3.0,1.0,0.0,0.0,l3_eng,-2.5142055322180346,-3.8533627737632985
263e657cacc04e,ala059,2,2,35,https://d3uxfe7dw0hhy7.cloudfront.net/annie-helms/new_catalan/st3_dur5,472,15,OK,pondís,1237,ult,st3_dur5,3.0,3.0,5.0,0.0,0.0,2.0,l3_eng,-2.5142055322180346,-3.8533627737632985
263e657cacc04e,ala059,2,2,36,https://d3uxfe7dw0hhy7.cloudfront.net/annie-helms/new_catalan/F1_dur4,485,25,OK,pondis,1158,pen,F1_dur4,1.0,3.0,4.0,-2.0,0.0,1.0,l3_eng,-2.5142055322180346,-3.8533627737632985
263e657cacc04e,ala059,2,2,37,https://d3uxfe7dw0hhy7.cloudfront.net/annie-helms/new_catalan/F5_dur4,487,40,OK,pondís,1702,ult,F5_dur4,5.0,3.0,4.0,2.0,0.0,1.0,l3_eng,-2.5142055322180346,-3.8533627737632985
263e657cacc04e,ala059,2,2,38,https://d3uxfe7dw0hhy7.cloudfront.net/annie-helms/new_catalan/st1_dur2,481,20,OK,pondís,1051,ult,st1_dur2,3.0,1.0,2.0,0.0,-2.0,-1.0,l3_eng,-2.5142055322180346,-3.8533627737632985
263e657cacc04e,ala059,2,2,39,https://d3uxfe7dw0hhy7.cloudfront.net/annie-helms/new_catalan/st4_dur5,472,25,OK,pondis,1017,pen,st4_dur5,3.0,4.0,5.0,0.0,1.0,2.0,l3_eng,-2.5142055322180346,-3.8533627737632985
263e657cacc04e,ala059,2,2,40,https://d3uxfe7dw0hhy7.cloudfront.net/annie-helms/new_catalan/F2_st5,471,20,OK,pondis,857,pen,F2_st5,2.0,5.0,3.0,-1.0,2.0,0.0,l3_eng,-2.5142055322180346,-3.8533627737632985
263e657cacc04e,ala059,2,2,41,https://d3uxfe7dw0hhy7.cloudfront.net/annie-helms/new_catalan/F3_st3,461,20,OK,pondis,1152,pen,F3_st3,3.0,3.0,3.0,0.0,0.0,0.0,l3_eng,-2.5142055322180346,-3.8533627737632985
263e657cacc04e,ala059,2,2,42,https://d3uxfe7dw0hhy7.cloudfront.net/annie-helms/new_catalan/F4_st2,461,20,OK,pondis,1058,pen,F4_st2,4.0,2.0,3.0,1.0,-1.0,0.0,l3_eng,-2.5142055322180346,-3.8533627737632985
263e657cacc04e,ala059,2,2,43,https://d3uxfe7dw0hhy7.cloudfront.net/annie-helms/new_catalan/F4_dur2,482,20,OK,pondis,1184,pen,F4_dur2,4.0,3.0,2.0,1.0,0.0,-1.0,l3_eng,-2.5142055322180346,-3.8533627737632985
263e657cacc04e,ala059,2,2,44,https://d3uxfe7dw0hhy7.cloudfront.net/annie-helms/new_catalan/st2_dur4,475,20,OK,pondís,964,ult,st2_dur4,3.0,2.0,4.0,0.0,-1.0,1.0,l3_eng,-2.5142055322180346,-3.8533627737632985
263e657cacc04e,ala059,2,2,45,https://d3uxfe7dw0hhy7.cloudfront.net/annie-helms/new_catalan/st4_dur3,479,25,OK,pondís,1579,ult,st4_dur3,3.0,4.0,3.0,0.0,1.0,0.0,l3_eng,-2.5142055322180346,-3.8533627737632985
263e657cacc04e,ala059,2,2,46,https://d3uxfe7dw0hhy7.cloudfront.net/annie-helms/new_catalan/st2_dur2,481,20,OK,pondis,1020,pen,st2_dur2,3.0,2.0,2.0,0.0,-1.0,-1.0,l3_eng,-2.5142055322180346,-3.8533627737632985
263e657cacc04e,ala059,2,2,47,https://d3uxfe7dw0hhy7.cloudfront.net/annie-helms/new_catalan/F5_st4,473,20,OK,pondis,899,pen,F5_st4,5.0,4.0,3.0,2.0,1.0,0.0,l3_eng,-2.5142055322180346,-3.8533627737632985
263e657cacc04e,ala059,2,2,48,https://d3uxfe7dw0hhy7.cloudfront.net/annie-helms/new_catalan/F2_st2,471,20,OK,pondis,881,pen,F2_st2,2.0,2.0,3.0,-1.0,-1.0,0.0,l3_eng,-2.5142055322180346,-3.8533627737632985
263e657cacc04e,ala059,2,2,49,https://d3uxfe7dw0hhy7.cloudfront.net/annie-helms/new_catalan/F1_dur3,488,15,OK,pondis,1052,pen,F1_dur3,1.0,3.0,3.0,-2.0,0.0,0.0,l3_eng,-2.5142055322180346,-3.8533627737632985
263e657cacc04e,ala059,2,2,50,https://d3uxfe7dw0hhy7.cloudfront.net/annie-helms/new_catalan/st4_dur2,481,20,OK,pondis,1153,pen,st4_dur2,3.0,4.0,2.0,0.0,1.0,-1.0,l3_eng,-2.5142055322180346,-3.8533627737632985
263e657cacc04e,ala059,2,2,51,https://d3uxfe7dw0hhy7.cloudfront.net/annie-helms/new_catalan/F3_dur5,472,25,OK,pondis,956,pen,F3_dur5,3.0,3.0,5.0,0.0,0.0,2.0,l3_eng,-2.5142055322180346,-3.8533627737632985
263e657cacc04e,ala059,2,2,52,https://d3uxfe7dw0hhy7.cloudfront.net/annie-helms/new_catalan/F5_dur5,484,20,OK,pondis,1065,pen,F5_dur5,5.0,3.0,5.0,2.0,0.0,2.0,l3_eng,-2.5142055322180346,-3.8533627737632985
263e657cacc04e,ala059,2,2,53,https://d3uxfe7dw0hhy7.cloudfront.net/annie-helms/new_catalan/st1_dur5,472,20,OK,pondís,979,ult,st1_dur5,3.0,1.0,5.0,0.0,-2.0,2.0,l3_eng,-2.5142055322180346,-3.8533627737632985
263e657cacc04e,ala059,2,2,54,https://d3uxfe7dw0hhy7.cloudfront.net/annie-helms/new_catalan/F3_dur4,475,20,OK,pondís,1105,ult,F3_dur4,3.0,3.0,4.0,0.0,0.0,1.0,l3_eng,-2.5142055322180346,-3.8533627737632985
263e657cacc04e,ala059,2,2,55,https://d3uxfe7dw0hhy7.cloudfront.net/annie-helms/new_catalan/F2_dur1,495,15,OK,pondis,1216,pen,F2_dur1,2.0,3.0,1.0,-1.0,0.0,-2.0,l3_eng,-2.5142055322180346,-3.8533627737632985
263e657cacc04e,ala059,2,2,56,https://d3uxfe7dw0hhy7.cloudfront.net/annie-helms/new_catalan/F5_st1,473,30,OK,pondis,1136,pen,F5_st1,5.0,1.0,3.0,2.0,-2.0,0.0,l3_eng,-2.5142055322180346,-3.8533627737632985
263e657cacc04e,ala059,2,2,57,https://d3uxfe7dw0hhy7.cloudfront.net/annie-helms/new_catalan/st3_dur1,484,20,OK,pondís,1150,ult,st3_dur1,3.0,3.0,1.0,0.0,0.0,-2.0,l3_eng,-2.5142055322180346,-3.8533627737632985
263e657cacc04e,ala059,2,2,58,https://d3uxfe7dw0hhy7.cloudfront.net/annie-helms/new_catalan/F4_st1,461,15,OK,pondís,1247,ult,F4_st1,4.0,1.0,3.0,1.0,-2.0,0.0,l3_eng,-2.5142055322180346,-3.8533627737632985
263e657cacc04e,ala059,2,2,59,https://d3uxfe7dw0hhy7.cloudfront.net/annie-helms/new_catalan/st5_dur1,484,15,OK,pondís,1147,ult,st5_dur1,3.0,5.0,1.0,0.0,2.0,-2.0,l3_eng,-2.5142055322180346,-3.8533627737632985
263e657cacc04e,ala059,2,2,60,https://d3uxfe7dw0hhy7.cloudfront.net/annie-helms/new_catalan/F5_dur2,493,15,OK,pondis,1663,pen,F5_dur2,5.0,3.0,2.0,2.0,0.0,-1.0,l3_eng,-2.5142055322180346,-3.8533627737632985
263e657cacc04e,ala059,2,2,61,https://d3uxfe7dw0hhy7.cloudfront.net/annie-helms/new_catalan/F4_dur4,475,20,OK,pondís,1367,ult,F4_dur4,4.0,3.0,4.0,1.0,0.0,1.0,l3_eng,-2.5142055322180346,-3.8533627737632985
263e657cacc04e,ala059,2,2,62,https://d3uxfe7dw0hhy7.cloudfront.net/annie-helms/new_catalan/st2_dur3,479,20,OK,pondis,1687,pen,st2_dur3,3.0,2.0,3.0,0.0,-1.0,0.0,l3_eng,-2.5142055322180346,-3.8533627737632985
263e657cacc04e,ala059,2,2,63,https://d3uxfe7dw0hhy7.cloudfront.net/annie-helms/new_catalan/F1_dur1,494,25,OK,pondis,1017,pen,F1_dur1,1.0,3.0,1.0,-2.0,0.0,-2.0,l3_eng,-2.5142055322180346,-3.8533627737632985
263e657cacc04e,ala059,2,2,64,https://d3uxfe7dw0hhy7.cloudfront.net/annie-helms/new_catalan/F2_st1,471,20,OK,pondis,1348,pen,F2_st1,2.0,1.0,3.0,-1.0,-2.0,0.0,l3_eng,-2.5142055322180346,-3.8533627737632985
263e657cacc04e,ala059,2,2,65,https://d3uxfe7dw0hhy7.cloudfront.net/annie-helms/new_catalan/st5_dur3,479,25,OK,pondís,1296,ult,st5_dur3,3.0,5.0,3.0,0.0,2.0,0.0,l3_eng,-2.5142055322180346,-3.8533627737632985
263e657cacc04e,ala059,2,2,66,https://d3uxfe7dw0hhy7.cloudfront.net/annie-helms/new_catalan/F1_st3,471,15,OK,pondís,993,ult,F1_st3,1.0,3.0,3.0,-2.0,0.0,0.0,l3_eng,-2.5142055322180346,-3.8533627737632985
263e657cacc04e,ala059,2,2,67,https://d3uxfe7dw0hhy7.cloudfront.net/annie-helms/new_catalan/F3_dur1,485,20,OK,pondís,1109,ult,F3_dur1,3.0,3.0,1.0,0.0,0.0,-2.0,l3_eng,-2.5142055322180346,-3.8533627737632985
263e657cacc04e,ala059,2,2,68,https://d3uxfe7dw0hhy7.cloudfront.net/annie-helms/new_catalan/st1_dur1,484,20,OK,pondís,1045,ult,st1_dur1,3.0,1.0,1.0,0.0,-2.0,-2.0,l3_eng,-2.5142055322180346,-3.8533627737632985
263e657cacc04e,ala059,2,2,69,https://d3uxfe7dw0hhy7.cloudfront.net/annie-helms/new_catalan/st5_dur4,475,20,OK,pondís,1854,ult,st5_dur4,3.0,5.0,4.0,0.0,2.0,1.0,l3_eng,-2.5142055322180346,-3.8533627737632985
263e657cacc04e,ala059,2,2,70,https://d3uxfe7dw0hhy7.cloudfront.net/annie-helms/new_catalan/F3_st1,461,15,OK,pondís,1174,ult,F3_st1,3.0,1.0,3.0,0.0,-2.0,0.0,l3_eng,-2.5142055322180346,-3.8533627737632985
263e657cacc04e,ala059,2,2,71,https://d3uxfe7dw0hhy7.cloudfront.net/annie-helms/new_catalan/F2_dur2,492,35,OK,pondís,1198,ult,F2_dur2,2.0,3.0,2.0,-1.0,0.0,-1.0,l3_eng,-2.5142055322180346,-3.8533627737632985
263e657cacc04e,ala059,2,2,72,https://d3uxfe7dw0hhy7.cloudfront.net/annie-helms/new_catalan/F4_dur5,472,20,OK,pondis,1002,pen,F4_dur5,4.0,3.0,5.0,1.0,0.0,2.0,l3_eng,-2.5142055322180346,-3.8533627737632985
263e657cacc04e,ala059,2,2,73,https://d3uxfe7dw0hhy7.cloudfront.net/annie-helms/new_catalan/F4_st5,461,25,OK,pondis,1049,pen,F4_st5,4.0,5.0,3.0,1.0,2.0,0.0,l3_eng,-2.5142055322180346,-3.8533627737632985
263e657cacc04e,ala059,2,2,74,https://d3uxfe7dw0hhy7.cloudfront.net/annie-helms/new_catalan/F3_st2,461,15,OK,pondis,911,pen,F3_st2,3.0,2.0,3.0,0.0,-1.0,0.0,l3_eng,-2.5142055322180346,-3.8533627737632985
263e7a85cd687c,asl181,2,1,1,https://d3uxfe7dw0hhy7.cloudfront.net/annie-helms/new_catalan/F4_st5,461,10,OK,pondis,1801,pen,F4_st5,4.0,5.0,3.0,1.0,2.0,0.0,l1_eng,3.226858197921981,-1.7929237143897416
263e7a85cd687c,asl181,2,1,2,https://d3uxfe7dw0hhy7.cloudfront.net/annie-helms/new_catalan/st1_dur4,475,15,OK,pondis,1021,pen,st1_dur4,3.0,1.0,4.0,0.0,-2.0,1.0,l1_eng,3.226858197921981,-1.7929237143897416
263e7a85cd687c,asl181,2,1,3,https://d3uxfe7dw0hhy7.cloudfront.net/annie-helms/new_catalan/F4_st1,461,10,OK,pondis,870,pen,F4_st1,4.0,1.0,3.0,1.0,-2.0,0.0,l1_eng,3.226858197921981,-1.7929237143897416
263e7a85cd687c,asl181,2,1,4,https://d3uxfe7dw0hhy7.cloudfront.net/annie-helms/new_catalan/st2_dur2,481,15,OK,pondis,578,pen,st2_dur2,3.0,2.0,2.0,0.0,-1.0,-1.0,l1_eng,3.226858197921981,-1.7929237143897416
263e7a85cd687c,asl181,2,1,5,https://d3uxfe7dw0hhy7.cloudfront.net/annie-helms/new_catalan/st4_dur3,479,10,OK,pondis,387,pen,st4_dur3,3.0,4.0,3.0,0.0,1.0,0.0,l1_eng,3.226858197921981,-1.7929237143897416
263e7a85cd687c,asl181,2,1,6,https://d3uxfe7dw0hhy7.cloudfront.net/annie-helms/new_catalan/F3_st3,461,10,OK,pondis,865,pen,F3_st3,3.0,3.0,3.0,0.0,0.0,0.0,l1_eng,3.226858197921981,-1.7929237143897416
263e7a85cd687c,asl181,2,1,7,https://d3uxfe7dw0hhy7.cloudfront.net/annie-helms/new_catalan/F3_dur2,482,10,OK,pondis,767,pen,F3_dur2,3.0,3.0,2.0,0.0,0.0,-1.0,l1_eng,3.226858197921981,-1.7929237143897416
263e7a85cd687c,asl181,2,1,8,https://d3uxfe7dw0hhy7.cloudfront.net/annie-helms/new_catalan/st5_dur3,479,10,OK,pondis,637,pen,st5_dur3,3.0,5.0,3.0,0.0,2.0,0.0,l1_eng,3.226858197921981,-1.7929237143897416
263e7a85cd687c,asl181,2,1,9,https://d3uxfe7dw0hhy7.cloudfront.net/annie-helms/new_catalan/F2_st3,471,10,OK,pondis,609,pen,F2_st3,2.0,3.0,3.0,-1.0,0.0,0.0,l1_eng,3.226858197921981,-1.7929237143897416
263e7a85cd687c,asl181,2,1,10,https://d3uxfe7dw0hhy7.cloudfront.net/annie-helms/new_catalan/F1_st5,471,10,OK,pondis,398,pen,F1_st5,1.0,5.0,3.0,-2.0,2.0,0.0,l1_eng,3.226858197921981,-1.7929237143897416
263e7a85cd687c,asl181,2,1,11,https://d3uxfe7dw0hhy7.cloudfront.net/annie-helms/new_catalan/F4_dur2,482,10,OK,pondis,783,pen,F4_dur2,4.0,3.0,2.0,1.0,0.0,-1.0,l1_eng,3.226858197921981,-1.7929237143897416
263e7a85cd687c,asl181,2,1,12,https://d3uxfe7dw0hhy7.cloudfront.net/annie-helms/new_catalan/F5_st1,473,10,OK,pondis,794,pen,F5_st1,5.0,1.0,3.0,2.0,-2.0,0.0,l1_eng,3.226858197921981,-1.7929237143897416
263e7a85cd687c,asl181,2,1,13,https://d3uxfe7dw0hhy7.cloudfront.net/annie-helms/new_catalan/F1_dur2,491,10,OK,pondis,723,pen,F1_dur2,1.0,3.0,2.0,-2.0,0.0,-1.0,l1_eng,3.226858197921981,-1.7929237143897416
263e7a85cd687c,asl181,2,1,14,https://d3uxfe7dw0hhy7.cloudfront.net/annie-helms/new_catalan/F4_st4,461,10,OK,pondis,604,pen,F4_st4,4.0,4.0,3.0,1.0,1.0,0.0,l1_eng,3.226858197921981,-1.7929237143897416
263e7a85cd687c,asl181,2,1,15,https://d3uxfe7dw0hhy7.cloudfront.net/annie-helms/new_catalan/F3_st4,461,10,OK,pondis,377,pen,F3_st4,3.0,4.0,3.0,0.0,1.0,0.0,l1_eng,3.226858197921981,-1.7929237143897416
263e7a85cd687c,asl181,2,1,16,https://d3uxfe7dw0hhy7.cloudfront.net/annie-helms/new_catalan/F5_st2,473,10,OK,pondis,425,pen,F5_st2,5.0,2.0,3.0,2.0,-1.0,0.0,l1_eng,3.226858197921981,-1.7929237143897416
263e7a85cd687c,asl181,2,1,17,https://d3uxfe7dw0hhy7.cloudfront.net/annie-helms/new_catalan/st3_dur3,479,25,OK,pondis,262,pen,st3_dur3,3.0,3.0,3.0,0.0,0.0,0.0,l1_eng,3.226858197921981,-1.7929237143897416
263e7a85cd687c,asl181,2,1,18,https://d3uxfe7dw0hhy7.cloudfront.net/annie-helms/new_catalan/st3_dur1,484,10,OK,pondis,541,pen,st3_dur1,3.0,3.0,1.0,0.0,0.0,-2.0,l1_eng,3.226858197921981,-1.7929237143897416
263e7a85cd687c,asl181,2,1,19,https://d3uxfe7dw0hhy7.cloudfront.net/annie-helms/new_catalan/F3_dur1,485,15,OK,pondis,353,pen,F3_dur1,3.0,3.0,1.0,0.0,0.0,-2.0,l1_eng,3.226858197921981,-1.7929237143897416
263e7a85cd687c,asl181,2,1,20,https://d3uxfe7dw0hhy7.cloudfront.net/annie-helms/new_catalan/F2_st1,471,10,OK,pondis,514,pen,F2_st1,2.0,1.0,3.0,-1.0,-2.0,0.0,l1_eng,3.226858197921981,-1.7929237143897416
263e7a85cd687c,asl181,2,1,21,https://d3uxfe7dw0hhy7.cloudfront.net/annie-helms/new_catalan/F1_st4,471,10,OK,pondis,540,pen,F1_st4,1.0,4.0,3.0,-2.0,1.0,0.0,l1_eng,3.226858197921981,-1.7929237143897416
263e7a85cd687c,asl181,2,1,22,https://d3uxfe7dw0hhy7.cloudfront.net/annie-helms/new_catalan/st1_dur1,484,10,OK,pondis,501,pen,st1_dur1,3.0,1.0,1.0,0.0,-2.0,-2.0,l1_eng,3.226858197921981,-1.7929237143897416
263e7a85cd687c,asl181,2,1,23,https://d3uxfe7dw0hhy7.cloudfront.net/annie-helms/new_catalan/F3_st2,461,10,OK,pondis,734,pen,F3_st2,3.0,2.0,3.0,0.0,-1.0,0.0,l1_eng,3.226858197921981,-1.7929237143897416
263e7a85cd687c,asl181,2,1,24,https://d3uxfe7dw0hhy7.cloudfront.net/annie-helms/new_catalan/st2_dur1,484,10,OK,pondis,693,pen,st2_dur1,3.0,2.0,1.0,0.0,-1.0,-2.0,l1_eng,3.226858197921981,-1.7929237143897416
263e7a85cd687c,asl181,2,1,25,https://d3uxfe7dw0hhy7.cloudfront.net/annie-helms/new_catalan/F2_dur5,482,25,OK,pondis,426,pen,F2_dur5,2.0,3.0,5.0,-1.0,0.0,2.0,l1_eng,3.226858197921981,-1.7929237143897416
263e7a85cd687c,asl181,2,1,26,https://d3uxfe7dw0hhy7.cloudfront.net/annie-helms/new_catalan/st1_dur3,479,10,OK,pondis,291,pen,st1_dur3,3.0,1.0,3.0,0.0,-2.0,0.0,l1_eng,3.226858197921981,-1.7929237143897416
263e7a85cd687c,asl181,2,1,27,https://d3uxfe7dw0hhy7.cloudfront.net/annie-helms/new_catalan/st5_dur4,475,15,OK,pondis,374,pen,st5_dur4,3.0,5.0,4.0,0.0,2.0,1.0,l1_eng,3.226858197921981,-1.7929237143897416
263e7a85cd687c,asl181,2,1,28,https://d3uxfe7dw0hhy7.cloudfront.net/annie-helms/new_catalan/F5_dur3,491,10,OK,pondis,480,pen,F5_dur3,5.0,3.0,3.0,2.0,0.0,0.0,l1_eng,3.226858197921981,-1.7929237143897416
263e7a85cd687c,asl181,2,1,29,https://d3uxfe7dw0hhy7.cloudfront.net/annie-helms/new_catalan/st2_dur4,475,10,OK,pondis,284,pen,st2_dur4,3.0,2.0,4.0,0.0,-1.0,1.0,l1_eng,3.226858197921981,-1.7929237143897416
263e7a85cd687c,asl181,2,1,30,https://d3uxfe7dw0hhy7.cloudfront.net/annie-helms/new_catalan/F1_dur5,482,10,OK,pondis,335,pen,F1_dur5,1.0,3.0,5.0,-2.0,0.0,2.0,l1_eng,3.226858197921981,-1.7929237143897416
263e7a85cd687c,asl181,2,1,31,https://d3uxfe7dw0hhy7.cloudfront.net/annie-helms/new_catalan/st3_dur4,475,10,OK,pondis,302,pen,st3_dur4,3.0,3.0,4.0,0.0,0.0,1.0,l1_eng,3.226858197921981,-1.7929237143897416
263e7a85cd687c,asl181,2,1,32,https://d3uxfe7dw0hhy7.cloudfront.net/annie-helms/new_catalan/F1_dur4,485,15,OK,pondis,624,pen,F1_dur4,1.0,3.0,4.0,-2.0,0.0,1.0,l1_eng,3.226858197921981,-1.7929237143897416
263e7a85cd687c,asl181,2,1,33,https://d3uxfe7dw0hhy7.cloudfront.net/annie-helms/new_catalan/F5_dur4,487,20,OK,pondis,625,pen,F5_dur4,5.0,3.0,4.0,2.0,0.0,1.0,l1_eng,3.226858197921981,-1.7929237143897416
263e7a85cd687c,asl181,2,1,34,https://d3uxfe7dw0hhy7.cloudfront.net/annie-helms/new_catalan/F5_dur5,484,10,OK,pondis,317,pen,F5_dur5,5.0,3.0,5.0,2.0,0.0,2.0,l1_eng,3.226858197921981,-1.7929237143897416
263e7a85cd687c,asl181,2,1,35,https://d3uxfe7dw0hhy7.cloudfront.net/annie-helms/new_catalan/st5_dur5,472,10,OK,pondis,592,pen,st5_dur5,3.0,5.0,5.0,0.0,2.0,2.0,l1_eng,3.226858197921981,-1.7929237143897416
263e7a85cd687c,asl181,2,1,36,https://d3uxfe7dw0hhy7.cloudfront.net/annie-helms/new_catalan/F2_dur4,485,10,OK,pondis,545,pen,F2_dur4,2.0,3.0,4.0,-1.0,0.0,1.0,l1_eng,3.226858197921981,-1.7929237143897416
263e7a85cd687c,asl181,2,1,37,https://d3uxfe7dw0hhy7.cloudfront.net/annie-helms/new_catalan/st1_dur5,472,10,OK,pondis,535,pen,st1_dur5,3.0,1.0,5.0,0.0,-2.0,2.0,l1_eng,3.226858197921981,-1.7929237143897416
263e7a85cd687c,asl181,2,1,38,https://d3uxfe7dw0hhy7.cloudfront.net/annie-helms/new_catalan/st1_dur2,481,10,OK,pondis,393,pen,st1_dur2,3.0,1.0,2.0,0.0,-2.0,-1.0,l1_eng,3.226858197921981,-1.7929237143897416
263e7a85cd687c,asl181,2,1,39,https://d3uxfe7dw0hhy7.cloudfront.net/annie-helms/new_catalan/F5_st5,473,10,OK,pondis,475,pen,F5_st5,5.0,5.0,3.0,2.0,2.0,0.0,l1_eng,3.226858197921981,-1.7929237143897416
263e7a85cd687c,asl181,2,1,40,https://d3uxfe7dw0hhy7.cloudfront.net/annie-helms/new_catalan/F2_dur2,492,10,OK,pondis,573,pen,F2_dur2,2.0,3.0,2.0,-1.0,0.0,-1.0,l1_eng,3.226858197921981,-1.7929237143897416
263e7a85cd687c,asl181,2,1,41,https://d3uxfe7dw0hhy7.cloudfront.net/annie-helms/new_catalan/st4_dur2,481,30,OK,pondis,653,pen,st4_dur2,3.0,4.0,2.0,0.0,1.0,-1.0,l1_eng,3.226858197921981,-1.7929237143897416
263e7a85cd687c,asl181,2,1,42,https://d3uxfe7dw0hhy7.cloudfront.net/annie-helms/new_catalan/F2_st2,471,10,OK,pondis,686,pen,F2_st2,2.0,2.0,3.0,-1.0,-1.0,0.0,l1_eng,3.226858197921981,-1.7929237143897416
263e7a85cd687c,asl181,2,1,43,https://d3uxfe7dw0hhy7.cloudfront.net/annie-helms/new_catalan/F4_st2,461,5,OK,pondis,647,pen,F4_st2,4.0,2.0,3.0,1.0,-1.0,0.0,l1_eng,3.226858197921981,-1.7929237143897416
263e7a85cd687c,asl181,2,1,44,https://d3uxfe7dw0hhy7.cloudfront.net/annie-helms/new_catalan/F5_st3,473,10,OK,pondis,421,pen,F5_st3,5.0,3.0,3.0,2.0,0.0,0.0,l1_eng,3.226858197921981,-1.7929237143897416
263e7a85cd687c,asl181,2,1,45,https://d3uxfe7dw0hhy7.cloudfront.net/annie-helms/new_catalan/F4_st3,461,15,OK,pondis,595,pen,F4_st3,4.0,3.0,3.0,1.0,0.0,0.0,l1_eng,3.226858197921981,-1.7929237143897416
263e7a85cd687c,asl181,2,1,46,https://d3uxfe7dw0hhy7.cloudfront.net/annie-helms/new_catalan/st2_dur3,479,10,OK,pondis,560,pen,st2_dur3,3.0,2.0,3.0,0.0,-1.0,0.0,l1_eng,3.226858197921981,-1.7929237143897416
263e7a85cd687c,asl181,2,1,47,https://d3uxfe7dw0hhy7.cloudfront.net/annie-helms/new_catalan/F1_dur3,488,10,OK,pondis,309,pen,F1_dur3,1.0,3.0,3.0,-2.0,0.0,0.0,l1_eng,3.226858197921981,-1.7929237143897416
