SubjID,partID,list,block,trial,file1,filedur,loadtime,status,response,rt
1636e84f00f216,0,1,1,0,https://d3uxfe7dw0hhy7.cloudfront.net/annie-helms/cat_perception_stimuli/f6_s1,451,465,OK,pondís,1272
1636e84f00f216,0,1,1,1,https://d3uxfe7dw0hhy7.cloudfront.net/annie-helms/cat_perception_stimuli/f4_dur4,482,115,OK,pondís,438
1636e84f00f216,0,1,1,2,https://d3uxfe7dw0hhy7.cloudfront.net/annie-helms/cat_perception_stimuli/st4_dur6,447,110,OK,pondís,502
1636e84f00f216,0,1,1,3,https://d3uxfe7dw0hhy7.cloudfront.net/annie-helms/cat_perception_stimuli/f3_dur2,483,125,OK,pondís,416
1636e84f00f216,0,1,1,4,https://d3uxfe7dw0hhy7.cloudfront.net/annie-helms/cat_perception_stimuli/f6_dur1,484,205,OK,pondís,612
1636e84f00f216,0,1,1,5,https://d3uxfe7dw0hhy7.cloudfront.net/annie-helms/cat_perception_stimuli/f1_s1,441,85,OK,pondís,632
1636e84f00f216,0,1,1,6,https://d3uxfe7dw0hhy7.cloudfront.net/annie-helms/cat_perception_stimuli/f2_dur1,484,95,OK,pondís,224
1636e84f00f216,0,1,1,7,https://d3uxfe7dw0hhy7.cloudfront.net/annie-helms/cat_perception_stimuli/f1_dur6,474,125,OK,pondís,486
1636e84f00f216,0,1,1,8,https://d3uxfe7dw0hhy7.cloudfront.net/annie-helms/cat_perception_stimuli/f6_dur6,477,235,OK,pondis,639
1636e84f00f216,0,1,1,9,https://d3uxfe7dw0hhy7.cloudfront.net/annie-helms/cat_perception_stimuli/st5_dur4,448,150,OK,pondís,806
1636e84f00f216,0,1,1,10,https://d3uxfe7dw0hhy7.cloudfront.net/annie-helms/cat_perception_stimuli/f4_s1,441,305,OK,pondis,798
1636e84f00f216,0,1,1,11,https://d3uxfe7dw0hhy7.cloudfront.net/annie-helms/cat_perception_stimuli/st3_dur6,447,135,OK,pondís,782
1636e84f00f216,0,1,1,12,https://d3uxfe7dw0hhy7.cloudfront.net/annie-helms/cat_perception_stimuli/st5_dur6,447,275,OK,pondís,747
1636e84f00f216,0,1,1,13,https://d3uxfe7dw0hhy7.cloudfront.net/annie-helms/cat_perception_stimuli/f5_dur3,476,100,OK,pondís,583
1636e84f00f216,0,1,1,14,https://d3uxfe7dw0hhy7.cloudfront.net/annie-helms/cat_perception_stimuli/f2_dur6,474,240,OK,pondis,746
1636e84f00f216,0,1,1,15,https://d3uxfe7dw0hhy7.cloudfront.net/annie-helms/cat_perception_stimuli/f4_s2,441,80,OK,pondis,646
1636e84f00f216,0,1,1,16,https://d3uxfe7dw0hhy7.cloudfront.net/annie-helms/cat_perception_stimuli/st3_dur1,449,130,OK,pondís,624
1636e84f00f216,0,1,1,17,https://d3uxfe7dw0hhy7.cloudfront.net/annie-helms/cat_perception_stimuli/f6_s6,451,95,OK,pondis,420
1636e84f00f216,0,1,1,18,https://d3uxfe7dw0hhy7.cloudfront.net/annie-helms/cat_perception_stimuli/f5_s2,450,140,OK,pondís,683
1636e84f00f216,0,1,1,19,https://d3uxfe7dw0hhy7.cloudfront.net/annie-helms/cat_perception_stimuli/f2_s3,441,125,OK,pondis,744
1636e84f00f216,0,1,1,20,https://d3uxfe7dw0hhy7.cloudfront.net/annie-helms/cat_perception_stimuli/f6_dur2,484,250,OK,pondís,773
1636e84f00f216,0,1,1,21,https://d3uxfe7dw0hhy7.cloudfront.net/annie-helms/cat_perception_stimuli/f4_s6,441,80,OK,pondís,711
1636e84f00f216,0,1,1,22,https://d3uxfe7dw0hhy7.cloudfront.net/annie-helms/cat_perception_stimuli/st6_dur3,448,250,OK,pondis,679
1636e84f00f216,0,1,1,23,https://d3uxfe7dw0hhy7.cloudfront.net/annie-helms/cat_perception_stimuli/f3_dur5,474,85,OK,pondís,777
1636e84f00f216,0,1,1,24,https://d3uxfe7dw0hhy7.cloudfront.net/annie-helms/cat_perception_stimuli/f5_dur2,476,265,OK,pondís,758
1636e84f00f216,0,1,1,25,https://d3uxfe7dw0hhy7.cloudfront.net/annie-helms/cat_perception_stimuli/f5_dur1,477,85,OK,pondís,851
1636e84f00f216,0,1,1,26,https://d3uxfe7dw0hhy7.cloudfront.net/annie-helms/cat_perception_stimuli/f4_s5,441,95,OK,pondis,851
1636e84f00f216,0,1,1,27,https://d3uxfe7dw0hhy7.cloudfront.net/annie-helms/cat_perception_stimuli/f5_dur5,474,165,OK,pondís,723
1636e84f00f216,0,1,1,28,https://d3uxfe7dw0hhy7.cloudfront.net/annie-helms/cat_perception_stimuli/f4_dur1,484,200,OK,pondís,544
1636e84f00f216,0,1,1,29,https://d3uxfe7dw0hhy7.cloudfront.net/annie-helms/cat_perception_stimuli/f2_dur2,483,110,OK,pondís,666
1636e84f00f216,0,1,1,30,https://d3uxfe7dw0hhy7.cloudfront.net/annie-helms/cat_perception_stimuli/st2_dur4,448,90,OK,pondis,509
1636e84f00f216,0,1,1,31,https://d3uxfe7dw0hhy7.cloudfront.net/annie-helms/cat_perception_stimuli/f2_s6,441,185,OK,pondis,503
1636e84f00f216,0,1,1,32,https://d3uxfe7dw0hhy7.cloudfront.net/annie-helms/cat_perception_stimuli/st1_dur2,448,245,OK,pondis,527
1636e84f00f216,0,1,1,33,https://d3uxfe7dw0hhy7.cloudfront.net/annie-helms/cat_perception_stimuli/f6_dur3,483,105,OK,pondís,591
1636e84f00f216,0,1,1,34,https://d3uxfe7dw0hhy7.cloudfront.net/annie-helms/cat_perception_stimuli/f6_s2,451,205,OK,pondís,687
1636e84f00f216,0,1,1,35,https://d3uxfe7dw0hhy7.cloudfront.net/annie-helms/cat_perception_stimuli/f2_dur4,475,210,OK,pondis,664
1636e84f00f216,0,1,1,36,https://d3uxfe7dw0hhy7.cloudfront.net/annie-helms/cat_perception_stimuli/st1_dur4,447,245,OK,pondís,615
1636e84f00f216,0,1,1,37,https://d3uxfe7dw0hhy7.cloudfront.net/annie-helms/cat_perception_stimuli/f2_s2,441,280,OK,pondis,696
1636e84f00f216,0,1,1,38,https://d3uxfe7dw0hhy7.cloudfront.net/annie-helms/cat_perception_stimuli/f6_dur4,482,190,OK,pondís,540
1636e84f00f216,0,1,1,39,https://d3uxfe7dw0hhy7.cloudfront.net/annie-helms/cat_perception_stimuli/st6_dur4,448,80,OK,pondís,701
1636e84f00f216,0,1,1,40,https://d3uxfe7dw0hhy7.cloudfront.net/annie-helms/cat_perception_stimuli/f4_s3,441,215,OK,pondis,645
1636e84f00f216,0,1,1,41,https://d3uxfe7dw0hhy7.cloudfront.net/annie-helms/cat_perception_stimuli/f3_s4,441,370,OK,pondís,661
1636e84f00f216,0,1,1,42,https://d3uxfe7dw0hhy7.cloudfront.net/annie-helms/cat_perception_stimuli/st2_dur3,448,220,OK,pondís,532
1636e84f00f216,0,1,1,43,https://d3uxfe7dw0hhy7.cloudfront.net/annie-helms/cat_perception_stimuli/f5_s4,450,75,OK,pondis,511
1636e84f00f216,0,1,1,44,https://d3uxfe7dw0hhy7.cloudfront.net/annie-helms/cat_perception_stimuli/st2_dur5,447,320,OK,pondís,529
1636e84f00f216,0,1,1,45,https://d3uxfe7dw0hhy7.cloudfront.net/annie-helms/cat_perception_stimuli/f2_dur5,474,390,OK,pondis,619
1636e84f00f216,0,1,1,46,https://d3uxfe7dw0hhy7.cloudfront.net/annie-helms/cat_perception_stimuli/f1_s3,441,95,OK,pondís,526
1636e84f00f216,0,1,1,47,https://d3uxfe7dw0hhy7.cloudfront.net/annie-helms/cat_perception_stimuli/f6_dur5,475,210,OK,pondís,551
1636e84f00f216,0,1,1,48,https://d3uxfe7dw0hhy7.cloudfront.net/annie-helms/cat_perception_stimuli/st2_dur1,449,90,OK,pondis,596
1636e84f00f216,0,1,1,49,https://d3uxfe7dw0hhy7.cloudfront.net/annie-helms/cat_perception_stimuli/f3_s3,441,70,OK,pondis,758
1636e84f00f216,0,1,1,50,https://d3uxfe7dw0hhy7.cloudfront.net/annie-helms/cat_perception_stimuli/st2_dur2,448,85,OK,pondis,692
1636e84f00f216,0,1,1,51,https://d3uxfe7dw0hhy7.cloudfront.net/annie-helms/cat_perception_stimuli/f5_s5,450,285,OK,pondís,676
1636e84f00f216,0,1,1,52,https://d3uxfe7dw0hhy7.cloudfront.net/annie-helms/cat_perception_stimuli/f1_dur4,482,350,OK,pondis,713
1636e84f00f216,0,1,1,53,https://d3uxfe7dw0hhy7.cloudfront.net/annie-helms/cat_perception_stimuli/f4_s4,441,145,OK,pondís,659
1636e84f00f216,0,1,1,54,https://d3uxfe7dw0hhy7.cloudfront.net/annie-helms/cat_perception_stimuli/st3_dur2,448,160,OK,pondis,648
1636e84f00f216,0,1,1,55,https://d3uxfe7dw0hhy7.cloudfront.net/annie-helms/cat_perception_stimuli/f1_s5,441,135,OK,pondis,734
1636e84f00f216,0,1,1,56,https://d3uxfe7dw0hhy7.cloudfront.net/annie-helms/cat_perception_stimuli/f5_s6,450,185,OK,pondís,708
1636e84f00f216,0,1,1,57,https://d3uxfe7dw0hhy7.cloudfront.net/annie-helms/cat_perception_stimuli/st4_dur3,448,345,OK,pondis,667
1636e84f00f216,0,1,1,58,https://d3uxfe7dw0hhy7.cloudfront.net/annie-helms/cat_perception_stimuli/f4_dur6,480,340,OK,pondís,503
1636e84f00f216,0,1,1,59,https://d3uxfe7dw0hhy7.cloudfront.net/annie-helms/cat_perception_stimuli/f6_s4,451,335,OK,pondís,664
1636e84f00f216,0,1,1,60,https://d3uxfe7dw0hhy7.cloudfront.net/annie-helms/cat_perception_stimuli/st3_dur3,448,335,OK,pondís,528
1636e84f00f216,0,1,1,61,https://d3uxfe7dw0hhy7.cloudfront.net/annie-helms/cat_perception_stimuli/f3_s6,441,175,OK,pondís,607
1636e84f00f216,0,1,1,62,https://d3uxfe7dw0hhy7.cloudfront.net/annie-helms/cat_perception_stimuli/f5_s1,450,140,OK,pondís,647
1636e84f00f216,0,1,1,63,https://d3uxfe7dw0hhy7.cloudfront.net/annie-helms/cat_perception_stimuli/f1_dur5,474,105,OK,pondís,628
1636e84f00f216,0,1,1,64,https://d3uxfe7dw0hhy7.cloudfront.net/annie-helms/cat_perception_stimuli/f5_dur6,474,115,OK,pondís,656
1636e84f00f216,0,1,1,65,https://d3uxfe7dw0hhy7.cloudfront.net/annie-helms/cat_perception_stimuli/f2_s5,441,125,OK,pondis,501
1636e84f00f216,0,1,1,66,https://d3uxfe7dw0hhy7.cloudfront.net/annie-helms/cat_perception_stimuli/st4_dur5,447,270,OK,pondís,431
1636e84f00f216,0,1,1,67,https://d3uxfe7dw0hhy7.cloudfront.net/annie-helms/cat_perception_stimuli/f3_s5,441,115,OK,pondís,557
1636e84f00f216,0,1,1,68,https://d3uxfe7dw0hhy7.cloudfront.net/annie-helms/cat_perception_stimuli/st3_dur5,447,190,OK,pondís,658
1636e84f00f216,0,1,1,69,https://d3uxfe7dw0hhy7.cloudfront.net/annie-helms/cat_perception_stimuli/st1_dur3,448,85,OK,pondís,617
1636e84f00f216,0,1,1,70,https://d3uxfe7dw0hhy7.cloudfront.net/annie-helms/cat_perception_stimuli/st5_dur1,449,150,OK,pondis,572
1636e84f00f216,0,1,1,71,https://d3uxfe7dw0hhy7.cloudfront.net/annie-helms/cat_perception_stimuli/f2_dur3,482,220,OK,pondis,587
1636e84f00f216,0,1,1,72,https://d3uxfe7dw0hhy7.cloudfront.net/annie-helms/cat_perception_stimuli/f3_dur3,475,95,OK,pondís,632
1636e84f00f216,0,1,1,73,https://d3uxfe7dw0hhy7.cloudfront.net/annie-helms/cat_perception_stimuli/f1_s6,441,265,OK,pondis,669
1636e84f00f216,0,1,1,74,https://d3uxfe7dw0hhy7.cloudfront.net/annie-helms/cat_perception_stimuli/st1_dur6,447,155,OK,pondís,623
1636e84f00f216,0,1,1,75,https://d3uxfe7dw0hhy7.cloudfront.net/annie-helms/cat_perception_stimuli/f6_s3,451,310,OK,pondis,536
1636e84f00f216,0,1,1,76,https://d3uxfe7dw0hhy7.cloudfront.net/annie-helms/cat_perception_stimuli/st5_dur3,448,85,OK,pondis,796
1636e84f00f216,0,1,1,77,https://d3uxfe7dw0hhy7.cloudfront.net/annie-helms/cat_perception_stimuli/st2_dur6,447,220,OK,pondis,846
1636e84f00f216,0,1,1,78,https://d3uxfe7dw0hhy7.cloudfront.net/annie-helms/cat_perception_stimuli/st1_dur1,448,380,OK,pondís,942
1636e84f00f216,0,1,1,79,https://d3uxfe7dw0hhy7.cloudfront.net/annie-helms/cat_perception_stimuli/f2_s4,441,145,OK,pondis,592
1636e84f00f216,0,1,1,80,https://d3uxfe7dw0hhy7.cloudfront.net/annie-helms/cat_perception_stimuli/st6_dur5,448,120,OK,pondis,566
1636e84f00f216,0,1,1,81,https://d3uxfe7dw0hhy7.cloudfront.net/annie-helms/cat_perception_stimuli/st6_dur2,449,85,OK,pondis,629
1636e84f00f216,0,1,1,82,https://d3uxfe7dw0hhy7.cloudfront.net/annie-helms/cat_perception_stimuli/f1_dur1,484,90,OK,pondis,662
1636e84f00f216,0,1,1,83,https://d3uxfe7dw0hhy7.cloudfront.net/annie-helms/cat_perception_stimuli/f3_dur6,480,865,early_response,pondis,616
1636e84f00f216,0,1,1,84,https://d3uxfe7dw0hhy7.cloudfront.net/annie-helms/cat_perception_stimuli/st3_dur4,448,495,OK,pondís,549
1636e84f00f216,0,1,1,85,https://d3uxfe7dw0hhy7.cloudfront.net/annie-helms/cat_perception_stimuli/f3_dur1,484,880,OK,pondis,701
1636e84f00f216,0,1,1,86,https://d3uxfe7dw0hhy7.cloudfront.net/annie-helms/cat_perception_stimuli/f5_s3,450,610,OK,pondís,692
1636e84f00f216,0,1,1,87,https://d3uxfe7dw0hhy7.cloudfront.net/annie-helms/cat_perception_stimuli/f1_dur2,483,410,OK,pondis,617
1636e84f00f216,0,1,1,88,https://d3uxfe7dw0hhy7.cloudfront.net/annie-helms/cat_perception_stimuli/f1_s2,441,415,OK,pondís,762
1636e84f00f216,0,1,1,89,https://d3uxfe7dw0hhy7.cloudfront.net/annie-helms/cat_perception_stimuli/st4_dur4,448,380,OK,pondís,667
1636e84f00f216,0,1,1,90,https://d3uxfe7dw0hhy7.cloudfront.net/annie-helms/cat_perception_stimuli/f3_s1,441,555,OK,pondís,659
1636e84f00f216,0,1,1,91,https://d3uxfe7dw0hhy7.cloudfront.net/annie-helms/cat_perception_stimuli/st5_dur2,449,470,OK,pondís,701
1636e84f00f216,0,1,1,92,https://d3uxfe7dw0hhy7.cloudfront.net/annie-helms/cat_perception_stimuli/f3_s2,441,530,OK,pondís,694
1636e84f00f216,0,1,1,93,https://d3uxfe7dw0hhy7.cloudfront.net/annie-helms/cat_perception_stimuli/st4_dur1,449,480,OK,pondís,639
1636e84f00f216,0,1,1,94,https://d3uxfe7dw0hhy7.cloudfront.net/annie-helms/cat_perception_stimuli/f1_dur3,482,275,OK,pondís,586
1636e84f00f216,0,1,1,95,https://d3uxfe7dw0hhy7.cloudfront.net/annie-helms/cat_perception_stimuli/f4_dur2,483,285,OK,pondís,696
1636e84f00f216,0,1,1,96,https://d3uxfe7dw0hhy7.cloudfront.net/annie-helms/cat_perception_stimuli/f2_s1,441,430,OK,pondís,670
1636e84f00f216,0,1,1,97,https://d3uxfe7dw0hhy7.cloudfront.net/annie-helms/cat_perception_stimuli/st4_dur2,448,410,OK,pondís,519
1636e84f00f216,0,1,1,98,https://d3uxfe7dw0hhy7.cloudfront.net/annie-helms/cat_perception_stimuli/f1_s4,441,310,OK,pondís,629
1636e84f00f216,0,1,1,99,https://d3uxfe7dw0hhy7.cloudfront.net/annie-helms/cat_perception_stimuli/f4_dur3,483,440,OK,pondís,575
1636e84f00f216,0,1,1,100,https://d3uxfe7dw0hhy7.cloudfront.net/annie-helms/cat_perception_stimuli/st1_dur5,447,570,OK,pondís,658
1636e84f00f216,0,1,1,101,https://d3uxfe7dw0hhy7.cloudfront.net/annie-helms/cat_perception_stimuli/st6_dur6,447,185,OK,pondís,1869
1636e84f00f216,0,1,1,102,https://d3uxfe7dw0hhy7.cloudfront.net/annie-helms/cat_perception_stimuli/f5_dur4,475,295,OK,pondís,767
1636e84f00f216,0,1,1,103,https://d3uxfe7dw0hhy7.cloudfront.net/annie-helms/cat_perception_stimuli/st6_dur1,449,430,OK,pondís,576
1636e84f00f216,0,1,1,104,https://d3uxfe7dw0hhy7.cloudfront.net/annie-helms/cat_perception_stimuli/f4_dur5,475,155,OK,pondís,866
1636e84f00f216,0,1,1,105,https://d3uxfe7dw0hhy7.cloudfront.net/annie-helms/cat_perception_stimuli/f3_dur4,482,175,OK,pondís,645
1636e84f00f216,0,1,1,106,https://d3uxfe7dw0hhy7.cloudfront.net/annie-helms/cat_perception_stimuli/st5_dur5,448,165,OK,pondís,754
1636e84f00f216,0,1,1,107,https://d3uxfe7dw0hhy7.cloudfront.net/annie-helms/cat_perception_stimuli/f6_s5,451,125,OK,pondís,550
1636e84f00f216,0,1,2,0,https://d3uxfe7dw0hhy7.cloudfront.net/annie-helms/cat_perception_stimuli/st6_dur3,448,20,OK,pondis,1064
1636e84f00f216,0,1,2,1,https://d3uxfe7dw0hhy7.cloudfront.net/annie-helms/cat_perception_stimuli/f3_s3,441,20,OK,pondis,539
1636e84f00f216,0,1,2,2,https://d3uxfe7dw0hhy7.cloudfront.net/annie-helms/cat_perception_stimuli/st4_dur5,447,20,OK,pondis,940
1636e84f00f216,0,1,2,3,https://d3uxfe7dw0hhy7.cloudfront.net/annie-helms/cat_perception_stimuli/st5_dur6,447,20,OK,pondís,543
1636e84f00f216,0,1,2,4,https://d3uxfe7dw0hhy7.cloudfront.net/annie-helms/cat_perception_stimuli/f4_dur6,480,20,OK,pondís,544
1636e84f00f216,0,1,2,5,https://d3uxfe7dw0hhy7.cloudfront.net/annie-helms/cat_perception_stimuli/f2_dur6,474,20,OK,pondis,524
1636e84f00f216,0,1,2,6,https://d3uxfe7dw0hhy7.cloudfront.net/annie-helms/cat_perception_stimuli/f1_s1,441,20,OK,pondís,503
1636e84f00f216,0,1,2,7,https://d3uxfe7dw0hhy7.cloudfront.net/annie-helms/cat_perception_stimuli/st3_dur3,448,20,OK,pondís,751
1636e84f00f216,0,1,2,8,https://d3uxfe7dw0hhy7.cloudfront.net/annie-helms/cat_perception_stimuli/f2_dur4,475,15,OK,pondís,709
1636e84f00f216,0,1,2,9,https://d3uxfe7dw0hhy7.cloudfront.net/annie-helms/cat_perception_stimuli/st2_dur6,447,20,OK,pondís,841
1636e84f00f216,0,1,2,10,https://d3uxfe7dw0hhy7.cloudfront.net/annie-helms/cat_perception_stimuli/f4_dur1,484,20,OK,pondis,900
1636e84f00f216,0,1,2,11,https://d3uxfe7dw0hhy7.cloudfront.net/annie-helms/cat_perception_stimuli/st5_dur5,448,20,OK,pondís,892
1636e84f00f216,0,1,2,12,https://d3uxfe7dw0hhy7.cloudfront.net/annie-helms/cat_perception_stimuli/f1_dur3,482,20,OK,pondis,812
1636e84f00f216,0,1,2,13,https://d3uxfe7dw0hhy7.cloudfront.net/annie-helms/cat_perception_stimuli/st1_dur2,448,20,OK,pondís,700
1636e84f00f216,0,1,2,14,https://d3uxfe7dw0hhy7.cloudfront.net/annie-helms/cat_perception_stimuli/f5_dur6,474,20,OK,pondis,701
1636e84f00f216,0,1,2,15,https://d3uxfe7dw0hhy7.cloudfront.net/annie-helms/cat_perception_stimuli/st3_dur2,448,20,OK,pondís,991
1636e84f00f216,0,1,2,16,https://d3uxfe7dw0hhy7.cloudfront.net/annie-helms/cat_perception_stimuli/f2_dur5,474,25,OK,pondis,926
1636e84f00f216,0,1,2,17,https://d3uxfe7dw0hhy7.cloudfront.net/annie-helms/cat_perception_stimuli/f5_s1,450,20,OK,pondis,927
1636e84f00f216,0,1,2,18,https://d3uxfe7dw0hhy7.cloudfront.net/annie-helms/cat_perception_stimuli/st1_dur5,447,15,OK,pondís,1197
1636e84f00f216,0,1,2,19,https://d3uxfe7dw0hhy7.cloudfront.net/annie-helms/cat_perception_stimuli/st5_dur1,449,25,OK,pondis,657
1636e84f00f216,0,1,2,20,https://d3uxfe7dw0hhy7.cloudfront.net/annie-helms/cat_perception_stimuli/f3_dur6,480,15,OK,pondís,658
1636e84f00f216,0,1,2,21,https://d3uxfe7dw0hhy7.cloudfront.net/annie-helms/cat_perception_stimuli/f6_s6,451,20,OK,pondís,969
1636e84f00f216,0,1,2,22,https://d3uxfe7dw0hhy7.cloudfront.net/annie-helms/cat_perception_stimuli/f1_s5,441,20,OK,pondis,683
1636e84f00f216,0,1,2,23,https://d3uxfe7dw0hhy7.cloudfront.net/annie-helms/cat_perception_stimuli/f2_dur3,482,15,OK,pondís,806
1636e84f00f216,0,1,2,24,https://d3uxfe7dw0hhy7.cloudfront.net/annie-helms/cat_perception_stimuli/st2_dur1,449,20,OK,pondis,1034
1636e84f00f216,0,1,2,25,https://d3uxfe7dw0hhy7.cloudfront.net/annie-helms/cat_perception_stimuli/f5_dur3,476,20,OK,pondís,824
1636e84f00f216,0,1,2,26,https://d3uxfe7dw0hhy7.cloudfront.net/annie-helms/cat_perception_stimuli/st3_dur5,447,20,OK,pondis,815
1636e84f00f216,0,1,2,27,https://d3uxfe7dw0hhy7.cloudfront.net/annie-helms/cat_perception_stimuli/st4_dur3,448,20,OK,pondís,890
1636e84f00f216,0,1,2,28,https://d3uxfe7dw0hhy7.cloudfront.net/annie-helms/cat_perception_stimuli/f3_dur1,484,20,OK,pondis,859
1636e84f00f216,0,1,2,29,https://d3uxfe7dw0hhy7.cloudfront.net/annie-helms/cat_perception_stimuli/f6_s3,451,20,OK,pondís,790
1636e84f00f216,0,1,2,30,https://d3uxfe7dw0hhy7.cloudfront.net/annie-helms/cat_perception_stimuli/st5_dur3,448,15,OK,pondis,1088
1636e84f00f216,0,1,2,31,https://d3uxfe7dw0hhy7.cloudfront.net/annie-helms/cat_perception_stimuli/f1_dur6,474,20,OK,pondís,888
1636e84f00f216,0,1,2,32,https://d3uxfe7dw0hhy7.cloudfront.net/annie-helms/cat_perception_stimuli/f1_dur1,484,20,OK,pondís,1436
1636e84f00f216,0,1,2,33,https://d3uxfe7dw0hhy7.cloudfront.net/annie-helms/cat_perception_stimuli/f4_dur3,483,20,OK,pondis,739
1636e84f00f216,0,1,2,34,https://d3uxfe7dw0hhy7.cloudfront.net/annie-helms/cat_perception_stimuli/st3_dur6,447,15,OK,pondís,626
1636e84f00f216,0,1,2,35,https://d3uxfe7dw0hhy7.cloudfront.net/annie-helms/cat_perception_stimuli/f3_dur2,483,15,OK,pondís,704
1636e84f00f216,0,1,2,36,https://d3uxfe7dw0hhy7.cloudfront.net/annie-helms/cat_perception_stimuli/f6_dur1,484,15,OK,pondis,794
1636e84f00f216,0,1,2,37,https://d3uxfe7dw0hhy7.cloudfront.net/annie-helms/cat_perception_stimuli/f3_dur3,475,15,OK,pondís,700
1636e84f00f216,0,1,2,38,https://d3uxfe7dw0hhy7.cloudfront.net/annie-helms/cat_perception_stimuli/st5_dur2,449,25,OK,pondis,568
1636e84f00f216,0,1,2,39,https://d3uxfe7dw0hhy7.cloudfront.net/annie-helms/cat_perception_stimuli/f5_dur5,474,15,OK,pondís,566
1636e84f00f216,0,1,2,40,https://d3uxfe7dw0hhy7.cloudfront.net/annie-helms/cat_perception_stimuli/st1_dur6,447,20,OK,pondis,700
1636e84f00f216,0,1,2,41,https://d3uxfe7dw0hhy7.cloudfront.net/annie-helms/cat_perception_stimuli/st6_dur5,448,20,OK,pondís,669
1636e84f00f216,0,1,2,42,https://d3uxfe7dw0hhy7.cloudfront.net/annie-helms/cat_perception_stimuli/f6_s5,451,25,OK,pondis,761
1636e84f00f216,0,1,2,43,https://d3uxfe7dw0hhy7.cloudfront.net/annie-helms/cat_perception_stimuli/st1_dur3,448,20,OK,pondis,895
1636e84f00f216,0,1,2,44,https://d3uxfe7dw0hhy7.cloudfront.net/annie-helms/cat_perception_stimuli/f3_s2,441,25,OK,pondis,880
1636e84f00f216,0,1,2,45,https://d3uxfe7dw0hhy7.cloudfront.net/annie-helms/cat_perception_stimuli/f2_s3,441,15,OK,pondis,758
1636e84f00f216,0,1,2,46,https://d3uxfe7dw0hhy7.cloudfront.net/annie-helms/cat_perception_stimuli/f1_dur4,482,25,OK,pondís,991
1636e84f00f216,0,1,2,47,https://d3uxfe7dw0hhy7.cloudfront.net/annie-helms/cat_perception_stimuli/f2_s6,441,20,OK,pondís,862
1636e84f00f216,0,1,2,48,https://d3uxfe7dw0hhy7.cloudfront.net/annie-helms/cat_perception_stimuli/f3_dur4,482,20,OK,pondis,1110
1636e84f00f216,0,1,2,49,https://d3uxfe7dw0hhy7.cloudfront.net/annie-helms/cat_perception_stimuli/f3_s4,441,20,OK,pondis,1033
1636e84f00f216,0,1,2,50,https://d3uxfe7dw0hhy7.cloudfront.net/annie-helms/cat_perception_stimuli/f3_s1,441,20,OK,pondís,1106
1636e84f00f216,0,1,2,51,https://d3uxfe7dw0hhy7.cloudfront.net/annie-helms/cat_perception_stimuli/st3_dur1,449,20,OK,pondís,666
1636e84f00f216,0,1,2,52,https://d3uxfe7dw0hhy7.cloudfront.net/annie-helms/cat_perception_stimuli/f5_s5,450,20,OK,pondis,663
1636e84f00f216,0,1,2,53,https://d3uxfe7dw0hhy7.cloudfront.net/annie-helms/cat_perception_stimuli/st3_dur4,448,20,OK,pondis,526
1636e84f00f216,0,1,2,54,https://d3uxfe7dw0hhy7.cloudfront.net/annie-helms/cat_perception_stimuli/f6_s1,451,25,OK,pondís,701
1636e84f00f216,0,1,2,55,https://d3uxfe7dw0hhy7.cloudfront.net/annie-helms/cat_perception_stimuli/st4_dur1,449,20,OK,pondís,727
1636e84f00f216,0,1,2,56,https://d3uxfe7dw0hhy7.cloudfront.net/annie-helms/cat_perception_stimuli/st2_dur4,448,15,OK,pondis,973
1636e84f00f216,0,1,2,57,https://d3uxfe7dw0hhy7.cloudfront.net/annie-helms/cat_perception_stimuli/f3_dur5,474,15,OK,pondis,903
1636e84f00f216,0,1,2,58,https://d3uxfe7dw0hhy7.cloudfront.net/annie-helms/cat_perception_stimuli/st4_dur2,448,20,OK,pondis,742
1636e84f00f216,0,1,2,59,https://d3uxfe7dw0hhy7.cloudfront.net/annie-helms/cat_perception_stimuli/f4_s5,441,20,OK,pondís,733
1636e84f00f216,0,1,2,60,https://d3uxfe7dw0hhy7.cloudfront.net/annie-helms/cat_perception_stimuli/f6_dur5,475,20,OK,pondis,679
1636e84f00f216,0,1,2,61,https://d3uxfe7dw0hhy7.cloudfront.net/annie-helms/cat_perception_stimuli/f4_s3,441,20,OK,pondís,759
1636e84f00f216,0,1,2,62,https://d3uxfe7dw0hhy7.cloudfront.net/annie-helms/cat_perception_stimuli/f4_dur5,475,15,OK,pondis,651
1636e84f00f216,0,1,2,63,https://d3uxfe7dw0hhy7.cloudfront.net/annie-helms/cat_perception_stimuli/st6_dur2,449,20,OK,pondís,701
1636e84f00f216,0,1,2,64,https://d3uxfe7dw0hhy7.cloudfront.net/annie-helms/cat_perception_stimuli/f5_s4,450,15,OK,pondís,682
1636e84f00f216,0,1,2,65,https://d3uxfe7dw0hhy7.cloudfront.net/annie-helms/cat_perception_stimuli/st1_dur1,448,20,OK,pondis,731
1636e84f00f216,0,1,2,66,https://d3uxfe7dw0hhy7.cloudfront.net/annie-helms/cat_perception_stimuli/f4_dur2,483,20,OK,pondís,730
1636e84f00f216,0,1,2,67,https://d3uxfe7dw0hhy7.cloudfront.net/annie-helms/cat_perception_stimuli/f4_s6,441,20,OK,pondís,644
1636e84f00f216,0,1,2,68,https://d3uxfe7dw0hhy7.cloudfront.net/annie-helms/cat_perception_stimuli/f1_dur5,474,15,OK,pondis,375
1636e84f00f216,0,1,2,69,https://d3uxfe7dw0hhy7.cloudfront.net/annie-helms/cat_perception_stimuli/st6_dur1,449,25,OK,pondís,633
1636e84f00f216,0,1,2,70,https://d3uxfe7dw0hhy7.cloudfront.net/annie-helms/cat_perception_stimuli/f1_s2,441,20,OK,pondis,603
1636e84f00f216,0,1,2,71,https://d3uxfe7dw0hhy7.cloudfront.net/annie-helms/cat_perception_stimuli/f5_dur4,475,15,OK,pondís,546
1636e84f00f216,0,1,2,72,https://d3uxfe7dw0hhy7.cloudfront.net/annie-helms/cat_perception_stimuli/st5_dur4,448,20,OK,pondis,552
1636e84f00f216,0,1,2,73,https://d3uxfe7dw0hhy7.cloudfront.net/annie-helms/cat_perception_stimuli/st4_dur6,447,20,OK,pondís,502
1636e84f00f216,0,1,2,74,https://d3uxfe7dw0hhy7.cloudfront.net/annie-helms/cat_perception_stimuli/f2_s5,441,20,OK,pondis,501
1636e84f00f216,0,1,2,75,https://d3uxfe7dw0hhy7.cloudfront.net/annie-helms/cat_perception_stimuli/f5_dur1,477,20,OK,pondís,608
1636e84f00f216,0,1,2,76,https://d3uxfe7dw0hhy7.cloudfront.net/annie-helms/cat_perception_stimuli/f5_s2,450,20,OK,pondis,548
1636e84f00f216,0,1,2,77,https://d3uxfe7dw0hhy7.cloudfront.net/annie-helms/cat_perception_stimuli/f3_s6,441,20,OK,pondís,564
1636e84f00f216,0,1,2,78,https://d3uxfe7dw0hhy7.cloudfront.net/annie-helms/cat_perception_stimuli/f6_dur3,483,20,OK,pondis,601
1636e84f00f216,0,1,2,79,https://d3uxfe7dw0hhy7.cloudfront.net/annie-helms/cat_perception_stimuli/f6_s4,451,20,OK,pondís,503
1636e84f00f216,0,1,2,80,https://d3uxfe7dw0hhy7.cloudfront.net/annie-helms/cat_perception_stimuli/f4_dur4,482,25,OK,pondis,473
1636e84f00f216,0,1,2,81,https://d3uxfe7dw0hhy7.cloudfront.net/annie-helms/cat_perception_stimuli/f5_s6,450,20,OK,pondís,725
1636e84f00f216,0,1,2,82,https://d3uxfe7dw0hhy7.cloudfront.net/annie-helms/cat_perception_stimuli/f2_dur1,484,20,OK,pondis,586
1636e84f00f216,0,1,2,83,https://d3uxfe7dw0hhy7.cloudfront.net/annie-helms/cat_perception_stimuli/st6_dur4,448,20,OK,pondís,388
1636e84f00f216,0,1,2,84,https://d3uxfe7dw0hhy7.cloudfront.net/annie-helms/cat_perception_stimuli/f6_dur6,477,20,OK,pondis,526
1636e84f00f216,0,1,2,85,https://d3uxfe7dw0hhy7.cloudfront.net/annie-helms/cat_perception_stimuli/st2_dur2,448,20,OK,pondís,529
1636e84f00f216,0,1,2,86,https://d3uxfe7dw0hhy7.cloudfront.net/annie-helms/cat_perception_stimuli/f4_s2,441,20,OK,pondís,525
1636e84f00f216,0,1,2,87,https://d3uxfe7dw0hhy7.cloudfront.net/annie-helms/cat_perception_stimuli/f2_s2,441,20,OK,pondis,447
1636e84f00f216,0,1,2,88,https://d3uxfe7dw0hhy7.cloudfront.net/annie-helms/cat_perception_stimuli/f1_s3,441,15,OK,pondís,531
1636e84f00f216,0,1,2,89,https://d3uxfe7dw0hhy7.cloudfront.net/annie-helms/cat_perception_stimuli/f5_s3,450,15,OK,pondis,510
1636e84f00f216,0,1,2,90,https://d3uxfe7dw0hhy7.cloudfront.net/annie-helms/cat_perception_stimuli/st1_dur4,447,20,OK,pondís,525
1636e84f00f216,0,1,2,91,https://d3uxfe7dw0hhy7.cloudfront.net/annie-helms/cat_perception_stimuli/f6_dur2,484,20,OK,pondís,852
1636e84f00f216,0,1,2,92,https://d3uxfe7dw0hhy7.cloudfront.net/annie-helms/cat_perception_stimuli/f1_s4,441,20,OK,pondis,703
1636e84f00f216,0,1,2,93,https://d3uxfe7dw0hhy7.cloudfront.net/annie-helms/cat_perception_stimuli/f6_dur4,482,15,OK,pondís,899
1636e84f00f216,0,1,2,94,https://d3uxfe7dw0hhy7.cloudfront.net/annie-helms/cat_perception_stimuli/f2_s4,441,20,OK,pondís,820
1636e84f00f216,0,1,2,95,https://d3uxfe7dw0hhy7.cloudfront.net/annie-helms/cat_perception_stimuli/f6_s2,451,15,OK,pondís,1009
1636e84f00f216,0,1,2,96,https://d3uxfe7dw0hhy7.cloudfront.net/annie-helms/cat_perception_stimuli/f2_dur2,483,20,OK,pondís,771
1636e84f00f216,0,1,2,97,https://d3uxfe7dw0hhy7.cloudfront.net/annie-helms/cat_perception_stimuli/f5_dur2,476,20,OK,pondis,598
1636e84f00f216,0,1,2,98,https://d3uxfe7dw0hhy7.cloudfront.net/annie-helms/cat_perception_stimuli/f1_dur2,483,20,OK,pondís,753
1636e84f00f216,0,1,2,99,https://d3uxfe7dw0hhy7.cloudfront.net/annie-helms/cat_perception_stimuli/f4_s1,441,20,OK,pondis,698
1636e84f00f216,0,1,2,100,https://d3uxfe7dw0hhy7.cloudfront.net/annie-helms/cat_perception_stimuli/f4_s4,441,20,OK,pondís,775
1636e84f00f216,0,1,2,101,https://d3uxfe7dw0hhy7.cloudfront.net/annie-helms/cat_perception_stimuli/st2_dur5,447,25,OK,pondis,626
1636e84f00f216,0,1,2,102,https://d3uxfe7dw0hhy7.cloudfront.net/annie-helms/cat_perception_stimuli/f3_s5,441,20,OK,pondís,695
1636e84f00f216,0,1,2,103,https://d3uxfe7dw0hhy7.cloudfront.net/annie-helms/cat_perception_stimuli/st4_dur4,448,20,OK,pondis,523
1636e84f00f216,0,1,2,104,https://d3uxfe7dw0hhy7.cloudfront.net/annie-helms/cat_perception_stimuli/f2_s1,441,20,OK,pondís,720
1636e84f00f216,0,1,2,105,https://d3uxfe7dw0hhy7.cloudfront.net/annie-helms/cat_perception_stimuli/f1_s6,441,15,OK,pondis,575
1636e84f00f216,0,1,2,106,https://d3uxfe7dw0hhy7.cloudfront.net/annie-helms/cat_perception_stimuli/st2_dur3,448,20,OK,pondís,642
1636e84f00f216,0,1,2,107,https://d3uxfe7dw0hhy7.cloudfront.net/annie-helms/cat_perception_stimuli/st6_dur6,447,20,OK,pondis,575
1636e84f00f216,0,1,3,0,https://d3uxfe7dw0hhy7.cloudfront.net/annie-helms/cat_perception_stimuli/st2_dur3,448,20,OK,pondís,1268
1636e84f00f216,0,1,3,1,https://d3uxfe7dw0hhy7.cloudfront.net/annie-helms/cat_perception_stimuli/f1_dur2,483,20,OK,pondis,917
1636e84f00f216,0,1,3,2,https://d3uxfe7dw0hhy7.cloudfront.net/annie-helms/cat_perception_stimuli/st5_dur3,448,25,OK,pondís,649
1636e84f00f216,0,1,3,3,https://d3uxfe7dw0hhy7.cloudfront.net/annie-helms/cat_perception_stimuli/st3_dur5,447,20,OK,pondis,569
1636e84f00f216,0,1,3,4,https://d3uxfe7dw0hhy7.cloudfront.net/annie-helms/cat_perception_stimuli/st2_dur2,448,20,OK,pondís,757
1636e84f00f216,0,1,3,5,https://d3uxfe7dw0hhy7.cloudfront.net/annie-helms/cat_perception_stimuli/st4_dur4,448,15,OK,pondis,796
1636e84f00f216,0,1,3,6,https://d3uxfe7dw0hhy7.cloudfront.net/annie-helms/cat_perception_stimuli/st3_dur6,447,25,OK,pondís,633
1636e84f00f216,0,1,3,7,https://d3uxfe7dw0hhy7.cloudfront.net/annie-helms/cat_perception_stimuli/st5_dur2,449,20,OK,pondís,873
1636e84f00f216,0,1,3,8,https://d3uxfe7dw0hhy7.cloudfront.net/annie-helms/cat_perception_stimuli/f5_s4,450,25,OK,pondis,907
1636e84f00f216,0,1,3,9,https://d3uxfe7dw0hhy7.cloudfront.net/annie-helms/cat_perception_stimuli/st5_dur1,449,20,OK,pondís,882
1636e84f00f216,0,1,3,10,https://d3uxfe7dw0hhy7.cloudfront.net/annie-helms/cat_perception_stimuli/f6_s1,451,15,OK,pondis,803
1636e84f00f216,0,1,3,11,https://d3uxfe7dw0hhy7.cloudfront.net/annie-helms/cat_perception_stimuli/st2_dur5,447,10,OK,pondis,709
1636e84f00f216,0,1,3,12,https://d3uxfe7dw0hhy7.cloudfront.net/annie-helms/cat_perception_stimuli/f1_s1,441,20,OK,pondis,984
1636e84f00f216,0,1,3,13,https://d3uxfe7dw0hhy7.cloudfront.net/annie-helms/cat_perception_stimuli/f5_s2,450,20,OK,pondís,962
1636e84f00f216,0,1,3,14,https://d3uxfe7dw0hhy7.cloudfront.net/annie-helms/cat_perception_stimuli/f2_dur1,484,20,OK,pondis,680
1636e84f00f216,0,1,3,15,https://d3uxfe7dw0hhy7.cloudfront.net/annie-helms/cat_perception_stimuli/f6_s6,451,20,OK,pondís,941
1636e84f00f216,0,1,3,16,https://d3uxfe7dw0hhy7.cloudfront.net/annie-helms/cat_perception_stimuli/st6_dur3,448,25,OK,pondís,917
1636e84f00f216,0,1,3,17,https://d3uxfe7dw0hhy7.cloudfront.net/annie-helms/cat_perception_stimuli/f4_s1,441,20,OK,pondis,850
1636e84f00f216,0,1,3,18,https://d3uxfe7dw0hhy7.cloudfront.net/annie-helms/cat_perception_stimuli/st2_dur6,447,15,OK,pondis,755
1636e84f00f216,0,1,3,19,https://d3uxfe7dw0hhy7.cloudfront.net/annie-helms/cat_perception_stimuli/f5_dur1,477,15,OK,pondís,903
1636e84f00f216,0,1,3,20,https://d3uxfe7dw0hhy7.cloudfront.net/annie-helms/cat_perception_stimuli/st1_dur1,448,15,OK,pondis,669
1636e84f00f216,0,1,3,21,https://d3uxfe7dw0hhy7.cloudfront.net/annie-helms/cat_perception_stimuli/f6_dur1,484,20,OK,pondís,806
1636e84f00f216,0,1,3,22,https://d3uxfe7dw0hhy7.cloudfront.net/annie-helms/cat_perception_stimuli/f3_s5,441,20,OK,pondis,720
1636e84f00f216,0,1,3,23,https://d3uxfe7dw0hhy7.cloudfront.net/annie-helms/cat_perception_stimuli/st6_dur1,449,20,OK,pondís,809
1636e84f00f216,0,1,3,24,https://d3uxfe7dw0hhy7.cloudfront.net/annie-helms/cat_perception_stimuli/f4_s3,441,20,OK,pondis,713
1636e84f00f216,0,1,3,25,https://d3uxfe7dw0hhy7.cloudfront.net/annie-helms/cat_perception_stimuli/f4_dur6,480,20,OK,pondís,814
1636e84f00f216,0,1,3,26,https://d3uxfe7dw0hhy7.cloudfront.net/annie-helms/cat_perception_stimuli/st5_dur4,448,20,OK,pondis,747
1636e84f00f216,0,1,3,27,https://d3uxfe7dw0hhy7.cloudfront.net/annie-helms/cat_perception_stimuli/f4_s4,441,20,OK,pondís,1180
1636e84f00f216,0,1,3,28,https://d3uxfe7dw0hhy7.cloudfront.net/annie-helms/cat_perception_stimuli/st1_dur5,447,20,OK,pondis,852
1636e84f00f216,0,1,3,29,https://d3uxfe7dw0hhy7.cloudfront.net/annie-helms/cat_perception_stimuli/f5_s6,450,20,OK,pondís,511
1636e84f00f216,0,1,3,30,https://d3uxfe7dw0hhy7.cloudfront.net/annie-helms/cat_perception_stimuli/f5_dur6,474,20,OK,pondis,332
1636e84f00f216,0,1,3,31,https://d3uxfe7dw0hhy7.cloudfront.net/annie-helms/cat_perception_stimuli/f2_dur5,474,15,OK,pondís,379
1636e84f00f216,0,1,3,32,https://d3uxfe7dw0hhy7.cloudfront.net/annie-helms/cat_perception_stimuli/f6_dur6,477,20,OK,pondis,645
1636e84f00f216,0,1,3,33,https://d3uxfe7dw0hhy7.cloudfront.net/annie-helms/cat_perception_stimuli/f4_dur4,482,15,OK,pondís,586
1636e84f00f216,0,1,3,34,https://d3uxfe7dw0hhy7.cloudfront.net/annie-helms/cat_perception_stimuli/st2_dur4,448,15,OK,pondis,473
1636e84f00f216,0,1,3,35,https://d3uxfe7dw0hhy7.cloudfront.net/annie-helms/cat_perception_stimuli/f6_dur2,484,15,OK,pondís,590
1636e84f00f216,0,1,3,36,https://d3uxfe7dw0hhy7.cloudfront.net/annie-helms/cat_perception_stimuli/st2_dur1,449,20,OK,pondis,506
1636e84f00f216,0,1,3,37,https://d3uxfe7dw0hhy7.cloudfront.net/annie-helms/cat_perception_stimuli/f6_dur5,475,20,OK,pondís,600
1636e84f00f216,0,1,3,38,https://d3uxfe7dw0hhy7.cloudfront.net/annie-helms/cat_perception_stimuli/f1_dur4,482,15,OK,pondis,650
1636e84f00f216,0,1,3,39,https://d3uxfe7dw0hhy7.cloudfront.net/annie-helms/cat_perception_stimuli/f1_s4,441,20,OK,pondís,569
1636e84f00f216,0,1,3,40,https://d3uxfe7dw0hhy7.cloudfront.net/annie-helms/cat_perception_stimuli/f1_s5,441,20,OK,pondis,420
1636e84f00f216,0,1,3,41,https://d3uxfe7dw0hhy7.cloudfront.net/annie-helms/cat_perception_stimuli/f3_s3,441,15,OK,pondís,414
1636e84f00f216,0,1,3,42,https://d3uxfe7dw0hhy7.cloudfront.net/annie-helms/cat_perception_stimuli/st1_dur3,448,20,OK,pondis,498
1636e84f00f216,0,1,3,43,https://d3uxfe7dw0hhy7.cloudfront.net/annie-helms/cat_perception_stimuli/st3_dur2,448,25,OK,pondís,363
1636e84f00f216,0,1,3,44,https://d3uxfe7dw0hhy7.cloudfront.net/annie-helms/cat_perception_stimuli/f3_s2,441,20,OK,pondís,616
1636e84f00f216,0,1,3,45,https://d3uxfe7dw0hhy7.cloudfront.net/annie-helms/cat_perception_stimuli/st4_dur3,448,20,OK,pondís,396
1636e84f00f216,0,1,3,46,https://d3uxfe7dw0hhy7.cloudfront.net/annie-helms/cat_perception_stimuli/f1_dur1,484,25,OK,pondís,391
1636e84f00f216,0,1,3,47,https://d3uxfe7dw0hhy7.cloudfront.net/annie-helms/cat_perception_stimuli/f3_dur5,474,25,OK,pondís,500
1636e84f00f216,0,1,3,48,https://d3uxfe7dw0hhy7.cloudfront.net/annie-helms/cat_perception_stimuli/st5_dur5,448,20,OK,pondís,572
1636e84f00f216,0,1,3,49,https://d3uxfe7dw0hhy7.cloudfront.net/annie-helms/cat_perception_stimuli/f5_dur5,474,20,OK,pondís,474
1636e84f00f216,0,1,3,50,https://d3uxfe7dw0hhy7.cloudfront.net/annie-helms/cat_perception_stimuli/f5_dur3,476,20,OK,pondís,577
1636e84f00f216,0,1,3,51,https://d3uxfe7dw0hhy7.cloudfront.net/annie-helms/cat_perception_stimuli/f3_dur1,484,15,OK,pondís,635
1636e84f00f216,0,1,3,52,https://d3uxfe7dw0hhy7.cloudfront.net/annie-helms/cat_perception_stimuli/f2_s2,441,15,OK,pondis,414
1636e84f00f216,0,1,3,53,https://d3uxfe7dw0hhy7.cloudfront.net/annie-helms/cat_perception_stimuli/f6_s4,451,20,OK,pondis,594
1636e84f00f216,0,1,3,54,https://d3uxfe7dw0hhy7.cloudfront.net/annie-helms/cat_perception_stimuli/f4_s2,441,15,OK,pondis,844
1636e84f00f216,0,1,3,55,https://d3uxfe7dw0hhy7.cloudfront.net/annie-helms/cat_perception_stimuli/st3_dur3,448,15,OK,pondís,632
1636e84f00f216,0,1,3,56,https://d3uxfe7dw0hhy7.cloudfront.net/annie-helms/cat_perception_stimuli/f1_s3,441,25,OK,pondis,457
1636e84f00f216,0,1,3,57,https://d3uxfe7dw0hhy7.cloudfront.net/annie-helms/cat_perception_stimuli/f6_dur3,483,20,OK,pondís,334
1636e84f00f216,0,1,3,58,https://d3uxfe7dw0hhy7.cloudfront.net/annie-helms/cat_perception_stimuli/f4_s5,441,15,OK,pondís,721
1636e84f00f216,0,1,3,59,https://d3uxfe7dw0hhy7.cloudfront.net/annie-helms/cat_perception_stimuli/f2_dur3,482,20,OK,pondís,532
1636e84f00f216,0,1,3,60,https://d3uxfe7dw0hhy7.cloudfront.net/annie-helms/cat_perception_stimuli/f5_s3,450,20,OK,pondís,565
1636e84f00f216,0,1,3,61,https://d3uxfe7dw0hhy7.cloudfront.net/annie-helms/cat_perception_stimuli/f4_dur5,475,20,OK,pondis,729
1636e84f00f216,0,1,3,62,https://d3uxfe7dw0hhy7.cloudfront.net/annie-helms/cat_perception_stimuli/f3_dur2,483,20,OK,pondís,370
1636e84f00f216,0,1,3,63,https://d3uxfe7dw0hhy7.cloudfront.net/annie-helms/cat_perception_stimuli/st6_dur6,447,20,OK,pondis,399
1636e84f00f216,0,1,3,64,https://d3uxfe7dw0hhy7.cloudfront.net/annie-helms/cat_perception_stimuli/f5_s5,450,25,OK,pondís,392
1636e84f00f216,0,1,3,65,https://d3uxfe7dw0hhy7.cloudfront.net/annie-helms/cat_perception_stimuli/st6_dur2,449,20,OK,pondis,446
1636e84f00f216,0,1,3,66,https://d3uxfe7dw0hhy7.cloudfront.net/annie-helms/cat_perception_stimuli/f1_s6,441,25,OK,pondís,553
1636e84f00f216,0,1,3,67,https://d3uxfe7dw0hhy7.cloudfront.net/annie-helms/cat_perception_stimuli/f2_s6,441,20,OK,pondis,583
1636e84f00f216,0,1,3,68,https://d3uxfe7dw0hhy7.cloudfront.net/annie-helms/cat_perception_stimuli/st5_dur6,447,20,OK,pondís,601
1636e84f00f216,0,1,3,69,https://d3uxfe7dw0hhy7.cloudfront.net/annie-helms/cat_perception_stimuli/st1_dur4,447,20,OK,pondis,612
1636e84f00f216,0,1,3,70,https://d3uxfe7dw0hhy7.cloudfront.net/annie-helms/cat_perception_stimuli/f1_dur5,474,20,OK,pondís,583
1636e84f00f216,0,1,3,71,https://d3uxfe7dw0hhy7.cloudfront.net/annie-helms/cat_perception_stimuli/f2_dur2,483,20,OK,pondis,584
1636e84f00f216,0,1,3,72,https://d3uxfe7dw0hhy7.cloudfront.net/annie-helms/cat_perception_stimuli/f1_dur6,474,20,OK,pondís,576
1636e84f00f216,0,1,3,73,https://d3uxfe7dw0hhy7.cloudfront.net/annie-helms/cat_perception_stimuli/f4_dur3,483,20,OK,pondis,570
1636e84f00f216,0,1,3,74,https://d3uxfe7dw0hhy7.cloudfront.net/annie-helms/cat_perception_stimuli/f3_s6,441,20,OK,pondís,513
1636e84f00f216,0,1,3,75,https://d3uxfe7dw0hhy7.cloudfront.net/annie-helms/cat_perception_stimuli/st4_dur5,447,20,OK,pondís,473
1636e84f00f216,0,1,3,76,https://d3uxfe7dw0hhy7.cloudfront.net/annie-helms/cat_perception_stimuli/f4_dur2,483,15,OK,pondis,417
1636e84f00f216,0,1,3,77,https://d3uxfe7dw0hhy7.cloudfront.net/annie-helms/cat_perception_stimuli/f2_s3,441,20,OK,pondis,588
1636e84f00f216,0,1,3,78,https://d3uxfe7dw0hhy7.cloudfront.net/annie-helms/cat_perception_stimuli/st3_dur1,449,20,OK,pondís,577
1636e84f00f216,0,1,3,79,https://d3uxfe7dw0hhy7.cloudfront.net/annie-helms/cat_perception_stimuli/f5_dur2,476,15,OK,pondís,793
1636e84f00f216,0,1,3,80,https://d3uxfe7dw0hhy7.cloudfront.net/annie-helms/cat_perception_stimuli/st3_dur4,448,20,OK,pondis,559
1636e84f00f216,0,1,3,81,https://d3uxfe7dw0hhy7.cloudfront.net/annie-helms/cat_perception_stimuli/f2_dur4,475,20,OK,pondis,654
1636e84f00f216,0,1,3,82,https://d3uxfe7dw0hhy7.cloudfront.net/annie-helms/cat_perception_stimuli/st4_dur6,447,20,OK,pondis,705
1636e84f00f216,0,1,3,83,https://d3uxfe7dw0hhy7.cloudfront.net/annie-helms/cat_perception_stimuli/f2_s5,441,20,OK,pondis,744
1636e84f00f216,0,1,3,84,https://d3uxfe7dw0hhy7.cloudfront.net/annie-helms/cat_perception_stimuli/f6_s2,451,20,OK,pondis,802
1636e84f00f216,0,1,3,85,https://d3uxfe7dw0hhy7.cloudfront.net/annie-helms/cat_perception_stimuli/f5_s1,450,20,OK,pondis,639
1636e84f00f216,0,1,3,86,https://d3uxfe7dw0hhy7.cloudfront.net/annie-helms/cat_perception_stimuli/f2_dur6,474,15,OK,pondis,392
1636e84f00f216,0,1,3,87,https://d3uxfe7dw0hhy7.cloudfront.net/annie-helms/cat_perception_stimuli/st6_dur4,448,25,OK,pondis,396
1636e84f00f216,0,1,3,88,https://d3uxfe7dw0hhy7.cloudfront.net/annie-helms/cat_perception_stimuli/f6_s3,451,20,OK,pondis,766
1636e84f00f216,0,1,3,89,https://d3uxfe7dw0hhy7.cloudfront.net/annie-helms/cat_perception_stimuli/st4_dur2,448,20,OK,pondis,805
1636e84f00f216,0,1,3,90,https://d3uxfe7dw0hhy7.cloudfront.net/annie-helms/cat_perception_stimuli/f6_dur4,482,20,OK,pondis,722
1636e84f00f216,0,1,3,91,https://d3uxfe7dw0hhy7.cloudfront.net/annie-helms/cat_perception_stimuli/st1_dur6,447,20,OK,pondis,638
1636e84f00f216,0,1,3,92,https://d3uxfe7dw0hhy7.cloudfront.net/annie-helms/cat_perception_stimuli/f4_dur1,484,15,OK,pondís,778
1636e84f00f216,0,1,3,93,https://d3uxfe7dw0hhy7.cloudfront.net/annie-helms/cat_perception_stimuli/f3_s4,441,20,OK,pondis,555
1636e84f00f216,0,1,3,94,https://d3uxfe7dw0hhy7.cloudfront.net/annie-helms/cat_perception_stimuli/st4_dur1,449,20,OK,pondís,640
1636e84f00f216,0,1,3,95,https://d3uxfe7dw0hhy7.cloudfront.net/annie-helms/cat_perception_stimuli/f3_s1,441,20,OK,pondis,527
1636e84f00f216,0,1,3,96,https://d3uxfe7dw0hhy7.cloudfront.net/annie-helms/cat_perception_stimuli/f2_s1,441,20,OK,pondís,420
1636e84f00f216,0,1,3,97,https://d3uxfe7dw0hhy7.cloudfront.net/annie-helms/cat_perception_stimuli/f3_dur4,482,20,OK,pondis,371
1636e84f00f216,0,1,3,98,https://d3uxfe7dw0hhy7.cloudfront.net/annie-helms/cat_perception_stimuli/f1_dur3,482,20,OK,pondís,499
1636e84f00f216,0,1,3,99,https://d3uxfe7dw0hhy7.cloudfront.net/annie-helms/cat_perception_stimuli/f4_s6,441,15,OK,pondis,540
1636e84f00f216,0,1,3,100,https://d3uxfe7dw0hhy7.cloudfront.net/annie-helms/cat_perception_stimuli/st1_dur2,448,25,OK,pondís,505
1636e84f00f216,0,1,3,101,https://d3uxfe7dw0hhy7.cloudfront.net/annie-helms/cat_perception_stimuli/f5_dur4,475,15,OK,pondis,629
1636e84f00f216,0,1,3,102,https://d3uxfe7dw0hhy7.cloudfront.net/annie-helms/cat_perception_stimuli/f2_s4,441,20,OK,pondís,520
1636e84f00f216,0,1,3,103,https://d3uxfe7dw0hhy7.cloudfront.net/annie-helms/cat_perception_stimuli/f3_dur6,480,20,OK,pondís,527
1636e84f00f216,0,1,3,104,https://d3uxfe7dw0hhy7.cloudfront.net/annie-helms/cat_perception_stimuli/st6_dur5,448,25,OK,pondis,587
1636e84f00f216,0,1,3,105,https://d3uxfe7dw0hhy7.cloudfront.net/annie-helms/cat_perception_stimuli/f1_s2,441,20,OK,pondís,535
1636e84f00f216,0,1,3,106,https://d3uxfe7dw0hhy7.cloudfront.net/annie-helms/cat_perception_stimuli/f3_dur3,475,20,OK,pondís,592
1636e84f00f216,0,1,3,107,https://d3uxfe7dw0hhy7.cloudfront.net/annie-helms/cat_perception_stimuli/f6_s5,451,15,OK,pondis,657
16372c224d1af6,0,1,1,0,https://d3uxfe7dw0hhy7.cloudfront.net/annie-helms/cat_perception_stimuli/st6_dur3,448,725,OK,pondís,95
16372c224d1af6,0,1,1,1,https://d3uxfe7dw0hhy7.cloudfront.net/annie-helms/cat_perception_stimuli/f1_s3,441,265,early_response,pondís,710
16372c224d1af6,0,1,1,2,https://d3uxfe7dw0hhy7.cloudfront.net/annie-helms/cat_perception_stimuli/f6_s3,451,275,early_response,pondis,798
16372c224d1af6,0,1,1,3,https://d3uxfe7dw0hhy7.cloudfront.net/annie-helms/cat_perception_stimuli/f5_s6,450,260,OK,pondís,281
16372c224d1af6,0,1,1,4,https://d3uxfe7dw0hhy7.cloudfront.net/annie-helms/cat_perception_stimuli/f4_dur2,483,270,OK,pondis,322
16372c224d1af6,0,1,1,5,https://d3uxfe7dw0hhy7.cloudfront.net/annie-helms/cat_perception_stimuli/st4_dur2,448,260,OK,pondís,101
16372c224d1af6,0,1,1,6,https://d3uxfe7dw0hhy7.cloudfront.net/annie-helms/cat_perception_stimuli/f3_s4,441,110,OK,pondis,297
16372c224d1af6,0,1,1,7,https://d3uxfe7dw0hhy7.cloudfront.net/annie-helms/cat_perception_stimuli/st6_dur5,448,280,early_response,pondís,585
16372c224d1af6,0,1,1,8,https://d3uxfe7dw0hhy7.cloudfront.net/annie-helms/cat_perception_stimuli/st5_dur4,448,335,OK,pondis,113
16372c224d1af6,0,1,1,9,https://d3uxfe7dw0hhy7.cloudfront.net/annie-helms/cat_perception_stimuli/f4_s3,441,70,OK,pondis,1210
16372c224d1af6,0,1,1,10,https://d3uxfe7dw0hhy7.cloudfront.net/annie-helms/cat_perception_stimuli/f1_s6,441,130,OK,pondis,749
16372c224d1af6,0,1,1,11,https://d3uxfe7dw0hhy7.cloudfront.net/annie-helms/cat_perception_stimuli/st5_dur1,449,280,OK,pondis,724
16372c224d1af6,0,1,1,12,https://d3uxfe7dw0hhy7.cloudfront.net/annie-helms/cat_perception_stimuli/st4_dur5,447,300,OK,pondis,710
16372c224d1af6,0,1,1,13,https://d3uxfe7dw0hhy7.cloudfront.net/annie-helms/cat_perception_stimuli/f3_dur6,480,275,OK,pondis,659
16372c224d1af6,0,1,1,14,https://d3uxfe7dw0hhy7.cloudfront.net/annie-helms/cat_perception_stimuli/f6_dur6,477,270,OK,pondís,1198
16372c224d1af6,0,1,1,15,https://d3uxfe7dw0hhy7.cloudfront.net/annie-helms/cat_perception_stimuli/f2_s6,441,205,OK,pondís,469
16372c224d1af6,0,1,1,16,https://d3uxfe7dw0hhy7.cloudfront.net/annie-helms/cat_perception_stimuli/f2_dur2,483,300,OK,pondís,347
16372c224d1af6,0,1,1,17,https://d3uxfe7dw0hhy7.cloudfront.net/annie-helms/cat_perception_stimuli/f4_dur5,475,305,OK,pondís,270
16372c224d1af6,0,1,1,18,https://d3uxfe7dw0hhy7.cloudfront.net/annie-helms/cat_perception_stimuli/f3_dur2,483,165,OK,pondís,781
16372c224d1af6,0,1,1,19,https://d3uxfe7dw0hhy7.cloudfront.net/annie-helms/cat_perception_stimuli/st4_dur4,448,320,early_response,pondis,1093
16372c224d1af6,0,1,1,20,https://d3uxfe7dw0hhy7.cloudfront.net/annie-helms/cat_perception_stimuli/f3_s6,441,320,OK,pondís,61
16372c224d1af6,0,1,1,21,https://d3uxfe7dw0hhy7.cloudfront.net/annie-helms/cat_perception_stimuli/st6_dur4,448,325,early_response,pondis,392
16372c224d1af6,0,1,1,22,https://d3uxfe7dw0hhy7.cloudfront.net/annie-helms/cat_perception_stimuli/f1_s1,441,175,OK,pondís,558
16372c224d1af6,0,1,1,23,https://d3uxfe7dw0hhy7.cloudfront.net/annie-helms/cat_perception_stimuli/f4_dur1,484,345,early_response,pondis,233
16372c224d1af6,0,1,1,24,https://d3uxfe7dw0hhy7.cloudfront.net/annie-helms/cat_perception_stimuli/f5_s5,450,330,early_response,pondís,286
16372c224d1af6,0,1,1,25,https://d3uxfe7dw0hhy7.cloudfront.net/annie-helms/cat_perception_stimuli/f4_s1,441,155,OK,pondís,634
16372c224d1af6,0,1,1,26,https://d3uxfe7dw0hhy7.cloudfront.net/annie-helms/cat_perception_stimuli/f6_dur1,484,275,OK,pondís,11
16372c224d1af6,0,1,1,27,https://d3uxfe7dw0hhy7.cloudfront.net/annie-helms/cat_perception_stimuli/st2_dur6,447,230,OK,pondis,651
16372c224d1af6,0,1,1,28,https://d3uxfe7dw0hhy7.cloudfront.net/annie-helms/cat_perception_stimuli/f5_dur2,476,345,early_response,pondis,1350
16372c224d1af6,0,1,1,29,https://d3uxfe7dw0hhy7.cloudfront.net/annie-helms/cat_perception_stimuli/st1_dur1,448,385,OK,pondis,328
16372c224d1af6,0,1,1,30,https://d3uxfe7dw0hhy7.cloudfront.net/annie-helms/cat_perception_stimuli/f5_s4,450,130,OK,pondis,113
16372c224d1af6,0,1,1,31,https://d3uxfe7dw0hhy7.cloudfront.net/annie-helms/cat_perception_stimuli/f4_s6,441,50,OK,pondis,497
16372c224d1af6,0,1,1,32,https://d3uxfe7dw0hhy7.cloudfront.net/annie-helms/cat_perception_stimuli/f4_s4,441,70,OK,pondis,342
16372c224d1af6,0,1,1,33,https://d3uxfe7dw0hhy7.cloudfront.net/annie-helms/cat_perception_stimuli/st1_dur2,448,125,OK,pondis,480
16372c224d1af6,0,1,1,34,https://d3uxfe7dw0hhy7.cloudfront.net/annie-helms/cat_perception_stimuli/st6_dur2,449,80,OK,pondis,410
16372c224d1af6,0,1,1,35,https://d3uxfe7dw0hhy7.cloudfront.net/annie-helms/cat_perception_stimuli/st3_dur3,448,100,OK,pondis,592
16372c224d1af6,0,1,1,36,https://d3uxfe7dw0hhy7.cloudfront.net/annie-helms/cat_perception_stimuli/f3_s1,441,145,OK,pondis,223
16372c224d1af6,0,1,1,37,https://d3uxfe7dw0hhy7.cloudfront.net/annie-helms/cat_perception_stimuli/f5_dur1,477,105,OK,pondis,282
16372c224d1af6,0,1,1,38,https://d3uxfe7dw0hhy7.cloudfront.net/annie-helms/cat_perception_stimuli/f3_s2,441,160,OK,pondis,208
16372c224d1af6,0,1,1,39,https://d3uxfe7dw0hhy7.cloudfront.net/annie-helms/cat_perception_stimuli/f3_s5,441,75,OK,pondis,680
16372c224d1af6,0,1,1,40,https://d3uxfe7dw0hhy7.cloudfront.net/annie-helms/cat_perception_stimuli/f6_dur4,482,320,OK,pondis,191
16372c224d1af6,0,1,1,41,https://d3uxfe7dw0hhy7.cloudfront.net/annie-helms/cat_perception_stimuli/f1_s4,441,320,OK,pondis,73
16372c224d1af6,0,1,1,42,https://d3uxfe7dw0hhy7.cloudfront.net/annie-helms/cat_perception_stimuli/st1_dur3,448,300,OK,pondis,336
16372c224d1af6,0,1,1,43,https://d3uxfe7dw0hhy7.cloudfront.net/annie-helms/cat_perception_stimuli/st3_dur4,448,305,OK,pondis,9
16372c224d1af6,0,1,1,44,https://d3uxfe7dw0hhy7.cloudfront.net/annie-helms/cat_perception_stimuli/f4_dur3,483,310,OK,pondis,40
16372c224d1af6,0,1,1,45,https://d3uxfe7dw0hhy7.cloudfront.net/annie-helms/cat_perception_stimuli/st3_dur1,449,70,OK,pondis,692
16372c224d1af6,0,1,1,46,https://d3uxfe7dw0hhy7.cloudfront.net/annie-helms/cat_perception_stimuli/st2_dur3,448,285,OK,pondis,150
16372c224d1af6,0,1,1,47,https://d3uxfe7dw0hhy7.cloudfront.net/annie-helms/cat_perception_stimuli/f2_s3,441,320,early_response,pondis,430
16372c224d1af6,0,1,1,48,https://d3uxfe7dw0hhy7.cloudfront.net/annie-helms/cat_perception_stimuli/f6_dur3,483,290,early_response,pondis,94
16372c224d1af6,0,1,1,49,https://d3uxfe7dw0hhy7.cloudfront.net/annie-helms/cat_perception_stimuli/st3_dur6,447,170,early_response,pondis,398
16372c224d1af6,0,1,1,50,https://d3uxfe7dw0hhy7.cloudfront.net/annie-helms/cat_perception_stimuli/f3_dur4,482,60,OK,pondis,713
16372c224d1af6,0,1,1,51,https://d3uxfe7dw0hhy7.cloudfront.net/annie-helms/cat_perception_stimuli/st5_dur5,448,80,OK,pondis,194
16372c224d1af6,0,1,1,52,https://d3uxfe7dw0hhy7.cloudfront.net/annie-helms/cat_perception_stimuli/st4_dur3,448,60,OK,pondis,257
16372c224d1af6,0,1,1,53,https://d3uxfe7dw0hhy7.cloudfront.net/annie-helms/cat_perception_stimuli/f3_dur1,484,290,OK,pondis,263
16372c224d1af6,0,1,1,54,https://d3uxfe7dw0hhy7.cloudfront.net/annie-helms/cat_perception_stimuli/f1_s2,441,115,OK,pondis,463
16372c224d1af6,0,1,1,55,https://d3uxfe7dw0hhy7.cloudfront.net/annie-helms/cat_perception_stimuli/f4_dur4,482,300,OK,pondis,179
16372c224d1af6,0,1,1,56,https://d3uxfe7dw0hhy7.cloudfront.net/annie-helms/cat_perception_stimuli/f2_dur4,475,280,OK,pondis,689
16372c224d1af6,0,1,1,57,https://d3uxfe7dw0hhy7.cloudfront.net/annie-helms/cat_perception_stimuli/f2_s4,441,275,OK,pondis,533
16372c224d1af6,0,1,1,58,https://d3uxfe7dw0hhy7.cloudfront.net/annie-helms/cat_perception_stimuli/f1_dur5,474,55,OK,pondis,733
16372c224d1af6,0,1,1,59,https://d3uxfe7dw0hhy7.cloudfront.net/annie-helms/cat_perception_stimuli/f5_dur3,476,160,OK,pondis,802
16372c224d1af6,0,1,1,60,https://d3uxfe7dw0hhy7.cloudfront.net/annie-helms/cat_perception_stimuli/f5_s3,450,50,OK,pondis,642
16372c224d1af6,0,1,1,61,https://d3uxfe7dw0hhy7.cloudfront.net/annie-helms/cat_perception_stimuli/st3_dur2,448,90,OK,pondis,879
16372c224d1af6,0,1,1,62,https://d3uxfe7dw0hhy7.cloudfront.net/annie-helms/cat_perception_stimuli/f6_s1,451,190,OK,pondis,919
16372c224d1af6,0,1,1,63,https://d3uxfe7dw0hhy7.cloudfront.net/annie-helms/cat_perception_stimuli/f2_dur5,474,105,OK,pondis,909
16372c224d1af6,0,1,1,64,https://d3uxfe7dw0hhy7.cloudfront.net/annie-helms/cat_perception_stimuli/f1_s5,441,245,OK,pondis,375
16372c224d1af6,0,1,1,66,https://d3uxfe7dw0hhy7.cloudfront.net/annie-helms/cat_perception_stimuli/f1_dur1,484,50,OK,pondis,5455
16372c224d1af6,0,1,1,62,https://d3uxfe7dw0hhy7.cloudfront.net/annie-helms/cat_perception_stimuli/f6_s1,451,190,OK,pondis,919
16372c224d1af6,0,1,1,68,https://d3uxfe7dw0hhy7.cloudfront.net/annie-helms/cat_perception_stimuli/f2_dur3,482,100,OK,pondis,262
16372c224d1af6,0,1,1,61,https://d3uxfe7dw0hhy7.cloudfront.net/annie-helms/cat_perception_stimuli/st3_dur2,448,90,OK,pondis,879
16372c224d1af6,0,1,1,64,https://d3uxfe7dw0hhy7.cloudfront.net/annie-helms/cat_perception_stimuli/f1_s5,441,245,OK,pondis,375
16372c224d1af6,0,1,1,67,https://d3uxfe7dw0hhy7.cloudfront.net/annie-helms/cat_perception_stimuli/f5_dur6,474,185,OK,pondis,338
16372c224d1af6,0,1,1,63,https://d3uxfe7dw0hhy7.cloudfront.net/annie-helms/cat_perception_stimuli/f2_dur5,474,105,OK,pondis,909
16372c224d1af6,0,1,1,65,https://d3uxfe7dw0hhy7.cloudfront.net/annie-helms/cat_perception_stimuli/f1_dur2,483,50,OK,pondis,113
16372c224d1af6,0,1,1,69,https://d3uxfe7dw0hhy7.cloudfront.net/annie-helms/cat_perception_stimuli/f5_dur5,474,115,OK,pondis,412
16372c224d1af6,0,1,1,70,https://d3uxfe7dw0hhy7.cloudfront.net/annie-helms/cat_perception_stimuli/f2_dur1,484,310,OK,pondis,54
16372c224d1af6,0,1,1,71,https://d3uxfe7dw0hhy7.cloudfront.net/annie-helms/cat_perception_stimuli/f3_dur3,475,305,early_response,pondis,726
16372c224d1af6,0,1,1,72,https://d3uxfe7dw0hhy7.cloudfront.net/annie-helms/cat_perception_stimuli/st1_dur4,447,260,early_response,pondis,416
16372c224d1af6,0,1,1,73,https://d3uxfe7dw0hhy7.cloudfront.net/annie-helms/cat_perception_stimuli/st6_dur1,449,330,OK,pondis,112
16372c224d1af6,0,1,1,74,https://d3uxfe7dw0hhy7.cloudfront.net/annie-helms/cat_perception_stimuli/f3_dur5,474,325,OK,pondis,27
16372c224d1af6,0,1,1,75,https://d3uxfe7dw0hhy7.cloudfront.net/annie-helms/cat_perception_stimuli/f1_dur3,482,325,early_response,pondis,1136
16372c224d1af6,0,1,1,76,https://d3uxfe7dw0hhy7.cloudfront.net/annie-helms/cat_perception_stimuli/st2_dur5,447,325,OK,pondis,189
16372c224d1af6,0,1,1,77,https://d3uxfe7dw0hhy7.cloudfront.net/annie-helms/cat_perception_stimuli/st5_dur3,448,340,OK,pondis,319
16372c224d1af6,0,1,1,78,https://d3uxfe7dw0hhy7.cloudfront.net/annie-helms/cat_perception_stimuli/f4_s2,441,340,OK,pondis,433
16372c224d1af6,0,1,1,79,https://d3uxfe7dw0hhy7.cloudfront.net/annie-helms/cat_perception_stimuli/f6_dur5,475,390,OK,pondis,543
16372c224d1af6,0,1,1,80,https://d3uxfe7dw0hhy7.cloudfront.net/annie-helms/cat_perception_stimuli/st4_dur1,449,325,OK,pondis,496
16372c224d1af6,0,1,1,81,https://d3uxfe7dw0hhy7.cloudfront.net/annie-helms/cat_perception_stimuli/st2_dur4,448,330,OK,pondis,604
16372c224d1af6,0,1,1,82,https://d3uxfe7dw0hhy7.cloudfront.net/annie-helms/cat_perception_stimuli/f3_s3,441,105,OK,pondis,503
16372c224d1af6,0,1,1,83,https://d3uxfe7dw0hhy7.cloudfront.net/annie-helms/cat_perception_stimuli/st5_dur6,447,75,OK,pondis,1008
16372c224d1af6,0,1,1,84,https://d3uxfe7dw0hhy7.cloudfront.net/annie-helms/cat_perception_stimuli/f5_s1,450,315,OK,pondis,640
16372c224d1af6,0,1,1,85,https://d3uxfe7dw0hhy7.cloudfront.net/annie-helms/cat_perception_stimuli/st5_dur2,449,320,OK,pondis,422
16372c224d1af6,0,1,1,86,https://d3uxfe7dw0hhy7.cloudfront.net/annie-helms/cat_perception_stimuli/f6_s4,451,325,OK,pondis,193
16372c224d1af6,0,1,1,87,https://d3uxfe7dw0hhy7.cloudfront.net/annie-helms/cat_perception_stimuli/st4_dur6,447,310,OK,pondis,251
16372c224d1af6,0,1,1,88,https://d3uxfe7dw0hhy7.cloudfront.net/annie-helms/cat_perception_stimuli/f5_dur4,475,320,OK,pondis,222
16372c224d1af6,0,1,1,89,https://d3uxfe7dw0hhy7.cloudfront.net/annie-helms/cat_perception_stimuli/f1_dur6,474,320,OK,pondis,66
16372c224d1af6,0,1,1,90,https://d3uxfe7dw0hhy7.cloudfront.net/annie-helms/cat_perception_stimuli/f2_dur6,474,170,OK,pondis,525
16372c224d1af6,0,1,1,91,https://d3uxfe7dw0hhy7.cloudfront.net/annie-helms/cat_perception_stimuli/st1_dur5,447,315,OK,pondis,153
16372c224d1af6,0,1,1,92,https://d3uxfe7dw0hhy7.cloudfront.net/annie-helms/cat_perception_stimuli/f1_dur4,482,315,OK,pondis,3
16372c224d1af6,0,1,1,93,https://d3uxfe7dw0hhy7.cloudfront.net/annie-helms/cat_perception_stimuli/f6_s2,451,325,early_response,pondis,2572
16372c224d1af6,0,1,1,94,https://d3uxfe7dw0hhy7.cloudfront.net/annie-helms/cat_perception_stimuli/f6_dur2,484,130,OK,pondis,1816
16372c224d1af6,0,1,1,95,https://d3uxfe7dw0hhy7.cloudfront.net/annie-helms/cat_perception_stimuli/st3_dur5,447,295,OK,pondis,34
16372c224d1af6,0,1,1,96,https://d3uxfe7dw0hhy7.cloudfront.net/annie-helms/cat_perception_stimuli/f4_dur6,480,360,OK,pondis,74
16372c224d1af6,0,1,1,97,https://d3uxfe7dw0hhy7.cloudfront.net/annie-helms/cat_perception_stimuli/f4_s5,441,375,early_response,pondis,995
16372c224d1af6,0,1,1,98,https://d3uxfe7dw0hhy7.cloudfront.net/annie-helms/cat_perception_stimuli/st1_dur6,447,345,early_response,pondís,340
16372c224d1af6,0,1,1,99,https://d3uxfe7dw0hhy7.cloudfront.net/annie-helms/cat_perception_stimuli/f6_s6,451,350,early_response,pondís,229
16372c224d1af6,0,1,1,100,https://d3uxfe7dw0hhy7.cloudfront.net/annie-helms/cat_perception_stimuli/f2_s5,441,145,OK,pondís,822
16372c224d1af6,0,1,1,101,https://d3uxfe7dw0hhy7.cloudfront.net/annie-helms/cat_perception_stimuli/st2_dur1,449,335,OK,pondis,356
16372c224d1af6,0,1,1,102,https://d3uxfe7dw0hhy7.cloudfront.net/annie-helms/cat_perception_stimuli/st2_dur2,448,350,OK,pondís,609
16372c224d1af6,0,1,1,103,https://d3uxfe7dw0hhy7.cloudfront.net/annie-helms/cat_perception_stimuli/f6_s5,451,345,OK,pondis,622
16372c224d1af6,0,1,1,104,https://d3uxfe7dw0hhy7.cloudfront.net/annie-helms/cat_perception_stimuli/f2_s1,441,340,OK,pondís,514
16372c224d1af6,0,1,1,105,https://d3uxfe7dw0hhy7.cloudfront.net/annie-helms/cat_perception_stimuli/f5_s2,450,280,OK,pondis,117
16372c224d1af6,0,1,1,106,https://d3uxfe7dw0hhy7.cloudfront.net/annie-helms/cat_perception_stimuli/st6_dur6,447,370,early_response,pondís,364
16372c224d1af6,0,1,1,107,https://d3uxfe7dw0hhy7.cloudfront.net/annie-helms/cat_perception_stimuli/f2_s2,441,370,OK,pondis,339
16373e057927e0,0,1,1,0,https://d3uxfe7dw0hhy7.cloudfront.net/annie-helms/cat_perception_stimuli/f4_dur4,482,20,OK,pondis,1313
16373e057927e0,0,1,1,1,https://d3uxfe7dw0hhy7.cloudfront.net/annie-helms/cat_perception_stimuli/f5_dur6,474,15,OK,pondis,591
16373e057927e0,0,1,1,2,https://d3uxfe7dw0hhy7.cloudfront.net/annie-helms/cat_perception_stimuli/st3_dur4,448,20,OK,pondis,692
16373e057927e0,0,1,1,3,https://d3uxfe7dw0hhy7.cloudfront.net/annie-helms/cat_perception_stimuli/f3_s1,441,20,OK,pondis,925
16373e057927e0,0,1,1,4,https://d3uxfe7dw0hhy7.cloudfront.net/annie-helms/cat_perception_stimuli/f1_s5,441,20,OK,pondis,964
16373e057927e0,0,1,1,5,https://d3uxfe7dw0hhy7.cloudfront.net/annie-helms/cat_perception_stimuli/f6_dur3,483,20,OK,pondis,795
16373e057927e0,0,1,1,6,https://d3uxfe7dw0hhy7.cloudfront.net/annie-helms/cat_perception_stimuli/f5_s5,450,20,OK,pondis,715
16373e057927e0,0,1,1,7,https://d3uxfe7dw0hhy7.cloudfront.net/annie-helms/cat_perception_stimuli/f5_s3,450,20,OK,pondis,893
16373e057927e0,0,1,1,8,https://d3uxfe7dw0hhy7.cloudfront.net/annie-helms/cat_perception_stimuli/f5_s2,450,20,OK,pondis,988
16373e057927e0,0,1,1,9,https://d3uxfe7dw0hhy7.cloudfront.net/annie-helms/cat_perception_stimuli/f2_s1,441,20,OK,pondis,996
16373e057927e0,0,1,1,10,https://d3uxfe7dw0hhy7.cloudfront.net/annie-helms/cat_perception_stimuli/st3_dur3,448,25,OK,pondis,806
16373e057927e0,0,1,1,11,https://d3uxfe7dw0hhy7.cloudfront.net/annie-helms/cat_perception_stimuli/st6_dur5,448,20,OK,pondis,914
16373e057927e0,0,1,1,12,https://d3uxfe7dw0hhy7.cloudfront.net/annie-helms/cat_perception_stimuli/f4_s6,441,20,OK,pondis,839
16373e057927e0,0,1,1,13,https://d3uxfe7dw0hhy7.cloudfront.net/annie-helms/cat_perception_stimuli/st6_dur6,447,25,OK,pondis,538
16373e057927e0,0,1,1,14,https://d3uxfe7dw0hhy7.cloudfront.net/annie-helms/cat_perception_stimuli/f1_dur5,474,15,OK,pondis,626
16373e0bb740d5,0,1,1,0,https://d3uxfe7dw0hhy7.cloudfront.net/annie-helms/cat_perception_stimuli/st2_dur6,447,150,OK,pondis,1307
16373e0bb740d5,0,1,1,1,https://d3uxfe7dw0hhy7.cloudfront.net/annie-helms/cat_perception_stimuli/f6_s2,451,20,OK,pondis,645
16373e0bb740d5,0,1,1,2,https://d3uxfe7dw0hhy7.cloudfront.net/annie-helms/cat_perception_stimuli/f6_dur1,484,25,OK,pondis,689
16373e0bb740d5,0,1,1,3,https://d3uxfe7dw0hhy7.cloudfront.net/annie-helms/cat_perception_stimuli/f6_dur3,483,15,OK,pondis,604
16373e0bb740d5,0,1,1,4,https://d3uxfe7dw0hhy7.cloudfront.net/annie-helms/cat_perception_stimuli/f4_dur3,483,15,OK,pondis,598
16373e0bb740d5,0,1,1,5,https://d3uxfe7dw0hhy7.cloudfront.net/annie-helms/cat_perception_stimuli/f4_dur6,480,15,OK,pondis,770
16373e0bb740d5,0,1,1,6,https://d3uxfe7dw0hhy7.cloudfront.net/annie-helms/cat_perception_stimuli/f3_s3,441,25,OK,pondis,701
16373e0bb740d5,0,1,1,7,https://d3uxfe7dw0hhy7.cloudfront.net/annie-helms/cat_perception_stimuli/f4_dur1,484,15,OK,pondis,842
16373e0bb740d5,0,1,1,8,https://d3uxfe7dw0hhy7.cloudfront.net/annie-helms/cat_perception_stimuli/f3_s2,441,15,OK,pondis,747
16373e0bb740d5,0,1,1,9,https://d3uxfe7dw0hhy7.cloudfront.net/annie-helms/cat_perception_stimuli/f5_s1,450,20,OK,pondis,660
16373e0bb740d5,0,1,1,10,https://d3uxfe7dw0hhy7.cloudfront.net/annie-helms/cat_perception_stimuli/st4_dur3,448,20,OK,pondis,587
16373e0bb740d5,0,1,1,11,https://d3uxfe7dw0hhy7.cloudfront.net/annie-helms/cat_perception_stimuli/st6_dur2,449,15,OK,pondis,646
16373e0bb740d5,0,1,1,12,https://d3uxfe7dw0hhy7.cloudfront.net/annie-helms/cat_perception_stimuli/f2_s4,441,15,OK,pondis,829
16373e0bb740d5,0,1,1,13,https://d3uxfe7dw0hhy7.cloudfront.net/annie-helms/cat_perception_stimuli/st2_dur5,447,20,OK,pondis,576
16373e0bb740d5,0,1,1,14,https://d3uxfe7dw0hhy7.cloudfront.net/annie-helms/cat_perception_stimuli/f1_dur6,474,20,OK,pondis,478
16373e0bb740d5,0,1,1,15,https://d3uxfe7dw0hhy7.cloudfront.net/annie-helms/cat_perception_stimuli/f5_s6,450,15,OK,pondis,558
16373e0bb740d5,0,1,1,16,https://d3uxfe7dw0hhy7.cloudfront.net/annie-helms/cat_perception_stimuli/f2_s5,441,20,OK,pondis,583
16373e0bb740d5,0,1,1,17,https://d3uxfe7dw0hhy7.cloudfront.net/annie-helms/cat_perception_stimuli/f1_dur2,483,25,OK,pondis,598
16373e0bb740d5,0,1,1,18,https://d3uxfe7dw0hhy7.cloudfront.net/annie-helms/cat_perception_stimuli/f1_dur3,482,20,OK,pondis,583
16373e0bb740d5,0,1,1,19,https://d3uxfe7dw0hhy7.cloudfront.net/annie-helms/cat_perception_stimuli/f1_dur1,484,20,OK,pondis,562
16373e0bb740d5,0,1,1,20,https://d3uxfe7dw0hhy7.cloudfront.net/annie-helms/cat_perception_stimuli/f5_dur5,474,20,OK,pondis,590
16373e0bb740d5,0,1,1,21,https://d3uxfe7dw0hhy7.cloudfront.net/annie-helms/cat_perception_stimuli/f5_dur4,475,20,OK,pondis,495
16373e0bb740d5,0,1,1,22,https://d3uxfe7dw0hhy7.cloudfront.net/annie-helms/cat_perception_stimuli/st3_dur3,448,20,OK,pondis,626
16373e0bb740d5,0,1,1,23,https://d3uxfe7dw0hhy7.cloudfront.net/annie-helms/cat_perception_stimuli/st4_dur2,448,20,OK,pondis,842
16373e0bb740d5,0,1,1,24,https://d3uxfe7dw0hhy7.cloudfront.net/annie-helms/cat_perception_stimuli/st3_dur1,449,15,OK,pondis,566
16373e0bb740d5,0,1,1,25,https://d3uxfe7dw0hhy7.cloudfront.net/annie-helms/cat_perception_stimuli/st2_dur1,449,15,OK,pondis,710
16373e0bb740d5,0,1,1,26,https://d3uxfe7dw0hhy7.cloudfront.net/annie-helms/cat_perception_stimuli/f4_s3,441,20,OK,pondis,621
16373e0bb740d5,0,1,1,27,https://d3uxfe7dw0hhy7.cloudfront.net/annie-helms/cat_perception_stimuli/st5_dur6,447,20,OK,pondis,647
16373e0bb740d5,0,1,1,28,https://d3uxfe7dw0hhy7.cloudfront.net/annie-helms/cat_perception_stimuli/f2_s3,441,25,OK,pondis,791
16373e0bb740d5,0,1,1,29,https://d3uxfe7dw0hhy7.cloudfront.net/annie-helms/cat_perception_stimuli/st1_dur5,447,15,OK,pondis,619
16373e0bb740d5,0,1,1,30,https://d3uxfe7dw0hhy7.cloudfront.net/annie-helms/cat_perception_stimuli/f1_dur5,474,20,OK,pondis,959
16373e0bb740d5,0,1,1,31,https://d3uxfe7dw0hhy7.cloudfront.net/annie-helms/cat_perception_stimuli/f5_dur6,474,20,OK,pondis,521
16373e0bb740d5,0,1,1,32,https://d3uxfe7dw0hhy7.cloudfront.net/annie-helms/cat_perception_stimuli/st2_dur4,448,25,OK,pondis,1082
16373e0bb740d5,0,1,1,33,https://d3uxfe7dw0hhy7.cloudfront.net/annie-helms/cat_perception_stimuli/f4_s6,441,20,OK,pondis,463
16373e0bb740d5,0,1,1,34,https://d3uxfe7dw0hhy7.cloudfront.net/annie-helms/cat_perception_stimuli/f1_dur4,482,20,OK,pondis,551
16373e0bb740d5,0,1,1,35,https://d3uxfe7dw0hhy7.cloudfront.net/annie-helms/cat_perception_stimuli/f5_s4,450,20,OK,pondis,457
16373e0bb740d5,0,1,1,36,https://d3uxfe7dw0hhy7.cloudfront.net/annie-helms/cat_perception_stimuli/st6_dur1,449,20,OK,pondis,471
16373e0bb740d5,0,1,1,37,https://d3uxfe7dw0hhy7.cloudfront.net/annie-helms/cat_perception_stimuli/f3_dur6,480,25,OK,pondis,651
16373e0bb740d5,0,1,1,38,https://d3uxfe7dw0hhy7.cloudfront.net/annie-helms/cat_perception_stimuli/f4_dur5,475,25,OK,pondis,673
16373e0bb740d5,0,1,1,39,https://d3uxfe7dw0hhy7.cloudfront.net/annie-helms/cat_perception_stimuli/f6_s3,451,20,OK,pondis,696
16373e0bb740d5,0,1,1,40,https://d3uxfe7dw0hhy7.cloudfront.net/annie-helms/cat_perception_stimuli/f4_s4,441,25,OK,pondis,628
16373e0bb740d5,0,1,1,41,https://d3uxfe7dw0hhy7.cloudfront.net/annie-helms/cat_perception_stimuli/f2_s2,441,25,OK,pondis,701
16373e0bb740d5,0,1,1,42,https://d3uxfe7dw0hhy7.cloudfront.net/annie-helms/cat_perception_stimuli/st5_dur5,448,20,OK,pondis,639
16373e0bb740d5,0,1,1,43,https://d3uxfe7dw0hhy7.cloudfront.net/annie-helms/cat_perception_stimuli/f1_s2,441,25,OK,pondis,728
16373e0bb740d5,0,1,1,44,https://d3uxfe7dw0hhy7.cloudfront.net/annie-helms/cat_perception_stimuli/st4_dur6,447,20,OK,pondis,552
16373e0bb740d5,0,1,1,45,https://d3uxfe7dw0hhy7.cloudfront.net/annie-helms/cat_perception_stimuli/f4_s2,441,15,OK,pondis,684
16373e0bb740d5,0,1,1,46,https://d3uxfe7dw0hhy7.cloudfront.net/annie-helms/cat_perception_stimuli/f3_dur1,484,15,OK,pondis,577
16373e0bb740d5,0,1,1,47,https://d3uxfe7dw0hhy7.cloudfront.net/annie-helms/cat_perception_stimuli/f5_s2,450,20,OK,pondis,615
16373e0bb740d5,0,1,1,48,https://d3uxfe7dw0hhy7.cloudfront.net/annie-helms/cat_perception_stimuli/st2_dur3,448,20,OK,pondis,599
16373e0bb740d5,0,1,1,49,https://d3uxfe7dw0hhy7.cloudfront.net/annie-helms/cat_perception_stimuli/f2_dur6,474,25,OK,pondis,760
16373e0bb740d5,0,1,1,50,https://d3uxfe7dw0hhy7.cloudfront.net/annie-helms/cat_perception_stimuli/st5_dur4,448,15,OK,pondis,664
16373e0bb740d5,0,1,1,51,https://d3uxfe7dw0hhy7.cloudfront.net/annie-helms/cat_perception_stimuli/st4_dur1,449,20,OK,pondis,843
16373e0bb740d5,0,1,1,52,https://d3uxfe7dw0hhy7.cloudfront.net/annie-helms/cat_perception_stimuli/f3_s4,441,20,OK,pondis,592
16373e0bb740d5,0,1,1,53,https://d3uxfe7dw0hhy7.cloudfront.net/annie-helms/cat_perception_stimuli/st6_dur3,448,15,OK,pondis,726
16373e0bb740d5,0,1,1,54,https://d3uxfe7dw0hhy7.cloudfront.net/annie-helms/cat_perception_stimuli/f6_s1,451,20,OK,pondis,569
16373e0bb740d5,0,1,1,55,https://d3uxfe7dw0hhy7.cloudfront.net/annie-helms/cat_perception_stimuli/f1_s3,441,20,OK,pondis,714
16373e0bb740d5,0,1,1,56,https://d3uxfe7dw0hhy7.cloudfront.net/annie-helms/cat_perception_stimuli/f2_dur5,474,20,OK,pondis,823
16373e0bb740d5,0,1,1,57,https://d3uxfe7dw0hhy7.cloudfront.net/annie-helms/cat_perception_stimuli/f4_s5,441,15,OK,pondis,656
16373e0bb740d5,0,1,1,58,https://d3uxfe7dw0hhy7.cloudfront.net/annie-helms/cat_perception_stimuli/f1_s1,441,20,OK,pondis,467
16373e0bb740d5,0,1,1,59,https://d3uxfe7dw0hhy7.cloudfront.net/annie-helms/cat_perception_stimuli/f6_dur6,477,20,OK,pondis,600
16373e0bb740d5,0,1,1,60,https://d3uxfe7dw0hhy7.cloudfront.net/annie-helms/cat_perception_stimuli/st5_dur3,448,20,OK,pondis,588
16373e0bb740d5,0,1,1,61,https://d3uxfe7dw0hhy7.cloudfront.net/annie-helms/cat_perception_stimuli/f6_dur2,484,25,OK,pondis,700
16373e0bb740d5,0,1,1,62,https://d3uxfe7dw0hhy7.cloudfront.net/annie-helms/cat_perception_stimuli/f5_s5,450,15,OK,pondis,585
16373e0bb740d5,0,1,1,63,https://d3uxfe7dw0hhy7.cloudfront.net/annie-helms/cat_perception_stimuli/st1_dur6,447,20,OK,pondis,791
16373e0bb740d5,0,1,1,64,https://d3uxfe7dw0hhy7.cloudfront.net/annie-helms/cat_perception_stimuli/st1_dur3,448,15,OK,pondis,644
16373e0bb740d5,0,1,1,65,https://d3uxfe7dw0hhy7.cloudfront.net/annie-helms/cat_perception_stimuli/f6_dur5,475,20,OK,pondis,625
16373e0bb740d5,0,1,1,66,https://d3uxfe7dw0hhy7.cloudfront.net/annie-helms/cat_perception_stimuli/f1_s4,441,20,OK,pondis,472
16373e0bb740d5,0,1,1,67,https://d3uxfe7dw0hhy7.cloudfront.net/annie-helms/cat_perception_stimuli/f2_dur1,484,20,OK,pondis,729
16373e0bb740d5,0,1,1,68,https://d3uxfe7dw0hhy7.cloudfront.net/annie-helms/cat_perception_stimuli/f2_dur4,475,15,OK,pondis,1256
16373e0bb740d5,0,1,1,69,https://d3uxfe7dw0hhy7.cloudfront.net/annie-helms/cat_perception_stimuli/st5_dur2,449,15,OK,pondis,607
16373e0bb740d5,0,1,1,70,https://d3uxfe7dw0hhy7.cloudfront.net/annie-helms/cat_perception_stimuli/f2_dur3,482,20,OK,pondis,592
16373e0bb740d5,0,1,1,71,https://d3uxfe7dw0hhy7.cloudfront.net/annie-helms/cat_perception_stimuli/f3_dur2,483,15,OK,pondis,757
16373e0bb740d5,0,1,1,72,https://d3uxfe7dw0hhy7.cloudfront.net/annie-helms/cat_perception_stimuli/st6_dur6,447,25,OK,pondis,656
16373e0bb740d5,0,1,1,73,https://d3uxfe7dw0hhy7.cloudfront.net/annie-helms/cat_perception_stimuli/st1_dur1,448,20,OK,pondis,660
16373e0bb740d5,0,1,1,74,https://d3uxfe7dw0hhy7.cloudfront.net/annie-helms/cat_perception_stimuli/st1_dur4,447,20,OK,pondis,684
16373e0bb740d5,0,1,1,75,https://d3uxfe7dw0hhy7.cloudfront.net/annie-helms/cat_perception_stimuli/f3_s6,441,20,OK,pondis,688
16373e0bb740d5,0,1,1,76,https://d3uxfe7dw0hhy7.cloudfront.net/annie-helms/cat_perception_stimuli/st4_dur4,448,20,OK,pondis,643
16373e0bb740d5,0,1,1,77,https://d3uxfe7dw0hhy7.cloudfront.net/annie-helms/cat_perception_stimuli/f5_dur3,476,25,OK,pondis,791
16373e0bb740d5,0,1,1,78,https://d3uxfe7dw0hhy7.cloudfront.net/annie-helms/cat_perception_stimuli/f2_dur2,483,20,OK,pondis,725
16373e0bb740d5,0,1,1,79,https://d3uxfe7dw0hhy7.cloudfront.net/annie-helms/cat_perception_stimuli/st5_dur1,449,25,OK,pondis,744
16373e0bb740d5,0,1,1,80,https://d3uxfe7dw0hhy7.cloudfront.net/annie-helms/cat_perception_stimuli/st2_dur2,448,15,OK,pondis,685
16373e0bb740d5,0,1,1,81,https://d3uxfe7dw0hhy7.cloudfront.net/annie-helms/cat_perception_stimuli/st3_dur6,447,20,OK,pondis,659
16373e0bb740d5,0,1,1,82,https://d3uxfe7dw0hhy7.cloudfront.net/annie-helms/cat_perception_stimuli/f3_dur5,474,20,OK,pondis,919
16373e0bb740d5,0,1,1,83,https://d3uxfe7dw0hhy7.cloudfront.net/annie-helms/cat_perception_stimuli/f6_s6,451,25,OK,pondis,711
16373e0bb740d5,0,1,1,84,https://d3uxfe7dw0hhy7.cloudfront.net/annie-helms/cat_perception_stimuli/st6_dur5,448,15,OK,pondis,811
16373e0bb740d5,0,1,1,85,https://d3uxfe7dw0hhy7.cloudfront.net/annie-helms/cat_perception_stimuli/f6_s5,451,15,OK,pondis,689
16373e0bb740d5,0,1,1,86,https://d3uxfe7dw0hhy7.cloudfront.net/annie-helms/cat_perception_stimuli/f5_dur1,477,20,OK,pondis,658
16373e0bb740d5,0,1,1,87,https://d3uxfe7dw0hhy7.cloudfront.net/annie-helms/cat_perception_stimuli/f3_dur4,482,20,OK,pondis,759
16373e0bb740d5,0,1,1,88,https://d3uxfe7dw0hhy7.cloudfront.net/annie-helms/cat_perception_stimuli/f2_s1,441,15,OK,pondis,711
16373e0bb740d5,0,1,1,89,https://d3uxfe7dw0hhy7.cloudfront.net/annie-helms/cat_perception_stimuli/f6_s4,451,20,OK,pondis,764
16373e0bb740d5,0,1,1,90,https://d3uxfe7dw0hhy7.cloudfront.net/annie-helms/cat_perception_stimuli/f6_dur4,482,20,OK,pondis,722
16373e0bb740d5,0,1,1,91,https://d3uxfe7dw0hhy7.cloudfront.net/annie-helms/cat_perception_stimuli/f2_s6,441,20,OK,pondis,663
16373e0bb740d5,0,1,1,92,https://d3uxfe7dw0hhy7.cloudfront.net/annie-helms/cat_perception_stimuli/f5_dur2,476,20,OK,pondis,784
16373e0bb740d5,0,1,1,93,https://d3uxfe7dw0hhy7.cloudfront.net/annie-helms/cat_perception_stimuli/st3_dur4,448,15,OK,pondis,860
16373e0bb740d5,0,1,1,94,https://d3uxfe7dw0hhy7.cloudfront.net/annie-helms/cat_perception_stimuli/f3_dur3,475,20,OK,pondis,818
16373e0bb740d5,0,1,1,95,https://d3uxfe7dw0hhy7.cloudfront.net/annie-helms/cat_perception_stimuli/f1_s5,441,30,OK,pondis,718
16373e0bb740d5,0,1,1,96,https://d3uxfe7dw0hhy7.cloudfront.net/annie-helms/cat_perception_stimuli/f4_dur2,483,15,OK,pondis,488
16373e0bb740d5,0,1,1,97,https://d3uxfe7dw0hhy7.cloudfront.net/annie-helms/cat_perception_stimuli/st3_dur5,447,20,OK,pondis,780
16373e0bb740d5,0,1,1,98,https://d3uxfe7dw0hhy7.cloudfront.net/annie-helms/cat_perception_stimuli/f4_s1,441,20,OK,pondis,656
16373e0bb740d5,0,1,1,99,https://d3uxfe7dw0hhy7.cloudfront.net/annie-helms/cat_perception_stimuli/f3_s5,441,20,OK,pondis,806
16373e0bb740d5,0,1,1,100,https://d3uxfe7dw0hhy7.cloudfront.net/annie-helms/cat_perception_stimuli/st3_dur2,448,20,OK,pondis,893
16373e0bb740d5,0,1,1,101,https://d3uxfe7dw0hhy7.cloudfront.net/annie-helms/cat_perception_stimuli/st4_dur5,447,15,OK,pondis,971
16373e0bb740d5,0,1,1,102,https://d3uxfe7dw0hhy7.cloudfront.net/annie-helms/cat_perception_stimuli/st6_dur4,448,20,OK,pondis,665
16373e0bb740d5,0,1,1,103,https://d3uxfe7dw0hhy7.cloudfront.net/annie-helms/cat_perception_stimuli/f5_s3,450,15,OK,pondis,708
16373e0bb740d5,0,1,1,105,https://d3uxfe7dw0hhy7.cloudfront.net/annie-helms/cat_perception_stimuli/f3_s1,441,20,OK,pondis,463
16373e0bb740d5,0,1,1,106,https://d3uxfe7dw0hhy7.cloudfront.net/annie-helms/cat_perception_stimuli/f1_s6,441,20,OK,pondis,640
16373e0bb740d5,0,1,1,107,https://d3uxfe7dw0hhy7.cloudfront.net/annie-helms/cat_perception_stimuli/f4_dur4,482,20,OK,pondis,563
16373e0bb740d5,0,1,2,0,https://d3uxfe7dw0hhy7.cloudfront.net/annie-helms/cat_perception_stimuli/f4_s1,441,10,OK,pondis,842
16373e0bb740d5,0,1,2,1,https://d3uxfe7dw0hhy7.cloudfront.net/annie-helms/cat_perception_stimuli/st1_dur6,447,20,OK,pondis,679
16373e0bb740d5,0,1,2,2,https://d3uxfe7dw0hhy7.cloudfront.net/annie-helms/cat_perception_stimuli/f1_s1,441,15,OK,pondis,1062
16373e0bb740d5,0,1,2,3,https://d3uxfe7dw0hhy7.cloudfront.net/annie-helms/cat_perception_stimuli/st5_dur4,448,15,OK,pondis,787
16373e0bb740d5,0,1,2,4,https://d3uxfe7dw0hhy7.cloudfront.net/annie-helms/cat_perception_stimuli/f5_s4,450,20,OK,pondis,678
16373e0bb740d5,0,1,2,5,https://d3uxfe7dw0hhy7.cloudfront.net/annie-helms/cat_perception_stimuli/f6_dur3,483,15,OK,pondis,763
16373e0bb740d5,0,1,2,6,https://d3uxfe7dw0hhy7.cloudfront.net/annie-helms/cat_perception_stimuli/f5_s1,450,20,OK,pondis,590
16373e0bb740d5,0,1,2,7,https://d3uxfe7dw0hhy7.cloudfront.net/annie-helms/cat_perception_stimuli/st4_dur6,447,20,OK,pondis,568
16373e0bb740d5,0,1,2,8,https://d3uxfe7dw0hhy7.cloudfront.net/annie-helms/cat_perception_stimuli/f2_dur3,482,20,OK,pondis,537
16373e0bb740d5,0,1,2,9,https://d3uxfe7dw0hhy7.cloudfront.net/annie-helms/cat_perception_stimuli/f3_dur3,475,20,OK,pondis,731
16373e0bb740d5,0,1,2,10,https://d3uxfe7dw0hhy7.cloudfront.net/annie-helms/cat_perception_stimuli/f3_s5,441,20,OK,pondis,788
16373e0bb740d5,0,1,2,11,https://d3uxfe7dw0hhy7.cloudfront.net/annie-helms/cat_perception_stimuli/st1_dur5,447,25,OK,pondis,693
16373e0bb740d5,0,1,2,12,https://d3uxfe7dw0hhy7.cloudfront.net/annie-helms/cat_perception_stimuli/f2_s6,441,15,OK,pondis,792
16373e0bb740d5,0,1,2,13,https://d3uxfe7dw0hhy7.cloudfront.net/annie-helms/cat_perception_stimuli/f1_dur6,474,15,OK,pondis,698
16373e0bb740d5,0,1,2,14,https://d3uxfe7dw0hhy7.cloudfront.net/annie-helms/cat_perception_stimuli/f3_s3,441,15,OK,pondis,630
16373e0bb740d5,0,1,2,15,https://d3uxfe7dw0hhy7.cloudfront.net/annie-helms/cat_perception_stimuli/f5_dur4,475,20,OK,pondis,609
16373e0bb740d5,0,1,2,16,https://d3uxfe7dw0hhy7.cloudfront.net/annie-helms/cat_perception_stimuli/f1_s5,441,20,OK,pondis,630
16373e0bb740d5,0,1,2,17,https://d3uxfe7dw0hhy7.cloudfront.net/annie-helms/cat_perception_stimuli/f3_s4,441,20,OK,pondis,702
16373e0bb740d5,0,1,2,18,https://d3uxfe7dw0hhy7.cloudfront.net/annie-helms/cat_perception_stimuli/st2_dur1,449,25,OK,pondis,624
16373e0bb740d5,0,1,2,19,https://d3uxfe7dw0hhy7.cloudfront.net/annie-helms/cat_perception_stimuli/st2_dur3,448,15,OK,pondis,784
16373e0bb740d5,0,1,2,20,https://d3uxfe7dw0hhy7.cloudfront.net/annie-helms/cat_perception_stimuli/f4_s4,441,15,OK,pondis,711
16373e0bb740d5,0,1,2,21,https://d3uxfe7dw0hhy7.cloudfront.net/annie-helms/cat_perception_stimuli/f2_dur1,484,20,OK,pondis,722
16373e0bb740d5,0,1,2,22,https://d3uxfe7dw0hhy7.cloudfront.net/annie-helms/cat_perception_stimuli/st5_dur3,448,20,OK,pondis,749
16373e0bb740d5,0,1,2,23,https://d3uxfe7dw0hhy7.cloudfront.net/annie-helms/cat_perception_stimuli/st4_dur1,449,20,OK,pondis,675
16373e0bb740d5,0,1,2,24,https://d3uxfe7dw0hhy7.cloudfront.net/annie-helms/cat_perception_stimuli/f3_s6,441,15,OK,pondis,765
16373e0bb740d5,0,1,2,25,https://d3uxfe7dw0hhy7.cloudfront.net/annie-helms/cat_perception_stimuli/st5_dur5,448,15,OK,pondis,634
16373e0bb740d5,0,1,2,26,https://d3uxfe7dw0hhy7.cloudfront.net/annie-helms/cat_perception_stimuli/st6_dur5,448,25,OK,pondis,684
16373e0bb740d5,0,1,2,27,https://d3uxfe7dw0hhy7.cloudfront.net/annie-helms/cat_perception_stimuli/f4_dur2,483,20,OK,pondis,727
16373e0bb740d5,0,1,2,28,https://d3uxfe7dw0hhy7.cloudfront.net/annie-helms/cat_perception_stimuli/f4_dur5,475,15,OK,pondis,764
16373e0bb740d5,0,1,2,29,https://d3uxfe7dw0hhy7.cloudfront.net/annie-helms/cat_perception_stimuli/f6_dur6,477,25,OK,pondis,834
16373e0bb740d5,0,1,2,30,https://d3uxfe7dw0hhy7.cloudfront.net/annie-helms/cat_perception_stimuli/f4_dur1,484,20,OK,pondis,675
16373e0bb740d5,0,1,2,31,https://d3uxfe7dw0hhy7.cloudfront.net/annie-helms/cat_perception_stimuli/f1_s6,441,15,OK,pondis,796
16373e0bb740d5,0,1,2,32,https://d3uxfe7dw0hhy7.cloudfront.net/annie-helms/cat_perception_stimuli/st2_dur6,447,20,OK,pondis,786
16373e0bb740d5,0,1,2,33,https://d3uxfe7dw0hhy7.cloudfront.net/annie-helms/cat_perception_stimuli/f1_s3,441,20,OK,pondis,713
16373e0bb740d5,0,1,2,34,https://d3uxfe7dw0hhy7.cloudfront.net/annie-helms/cat_perception_stimuli/f4_dur3,483,15,OK,pondis,722
16373e0bb740d5,0,1,2,35,https://d3uxfe7dw0hhy7.cloudfront.net/annie-helms/cat_perception_stimuli/f3_dur6,480,15,OK,pondis,766
16373e0bb740d5,0,1,2,36,https://d3uxfe7dw0hhy7.cloudfront.net/annie-helms/cat_perception_stimuli/st4_dur5,447,20,OK,pondis,638
16373e0bb740d5,0,1,2,37,https://d3uxfe7dw0hhy7.cloudfront.net/annie-helms/cat_perception_stimuli/f3_dur1,484,25,OK,pondis,936
16373e0bb740d5,0,1,2,38,https://d3uxfe7dw0hhy7.cloudfront.net/annie-helms/cat_perception_stimuli/f5_dur5,474,20,OK,pondis,855
16373e0bb740d5,0,1,2,39,https://d3uxfe7dw0hhy7.cloudfront.net/annie-helms/cat_perception_stimuli/f1_dur2,483,10,OK,pondis,875
16373e0bb740d5,0,1,2,40,https://d3uxfe7dw0hhy7.cloudfront.net/annie-helms/cat_perception_stimuli/st3_dur2,448,15,OK,pondis,878
16373e0bb740d5,0,1,2,41,https://d3uxfe7dw0hhy7.cloudfront.net/annie-helms/cat_perception_stimuli/st1_dur4,447,20,OK,pondis,783
16373e0bb740d5,0,1,2,42,https://d3uxfe7dw0hhy7.cloudfront.net/annie-helms/cat_perception_stimuli/f6_s5,451,20,OK,pondis,887
16373e0bb740d5,0,1,2,43,https://d3uxfe7dw0hhy7.cloudfront.net/annie-helms/cat_perception_stimuli/f1_dur3,482,20,OK,pondis,765
16373e0bb740d5,0,1,2,44,https://d3uxfe7dw0hhy7.cloudfront.net/annie-helms/cat_perception_stimuli/st1_dur3,448,15,OK,pondis,619
16373e0bb740d5,0,1,2,45,https://d3uxfe7dw0hhy7.cloudfront.net/annie-helms/cat_perception_stimuli/st6_dur6,447,25,OK,pondis,665
16373e0bb740d5,0,1,2,46,https://d3uxfe7dw0hhy7.cloudfront.net/annie-helms/cat_perception_stimuli/f6_dur5,475,15,OK,pondis,733
16373e0bb740d5,0,1,2,47,https://d3uxfe7dw0hhy7.cloudfront.net/annie-helms/cat_perception_stimuli/f3_dur5,474,25,OK,pondis,739
16373e0bb740d5,0,1,2,48,https://d3uxfe7dw0hhy7.cloudfront.net/annie-helms/cat_perception_stimuli/f2_s2,441,25,OK,pondis,704
16373e0bb740d5,0,1,2,49,https://d3uxfe7dw0hhy7.cloudfront.net/annie-helms/cat_perception_stimuli/st6_dur4,448,20,OK,pondis,797
16373e0bb740d5,0,1,2,50,https://d3uxfe7dw0hhy7.cloudfront.net/annie-helms/cat_perception_stimuli/f2_dur6,474,20,OK,pondis,998
16373e0bb740d5,0,1,2,51,https://d3uxfe7dw0hhy7.cloudfront.net/annie-helms/cat_perception_stimuli/st5_dur1,449,20,OK,pondis,753
16373e0bb740d5,0,1,2,52,https://d3uxfe7dw0hhy7.cloudfront.net/annie-helms/cat_perception_stimuli/f5_s5,450,15,OK,pondis,1333
16373e0bb740d5,0,1,2,53,https://d3uxfe7dw0hhy7.cloudfront.net/annie-helms/cat_perception_stimuli/f6_dur4,482,15,OK,pondis,830
16373e0bb740d5,0,1,2,54,https://d3uxfe7dw0hhy7.cloudfront.net/annie-helms/cat_perception_stimuli/f1_dur5,474,20,OK,pondis,723
16373e0bb740d5,0,1,2,55,https://d3uxfe7dw0hhy7.cloudfront.net/annie-helms/cat_perception_stimuli/f5_dur3,476,20,OK,pondis,831
16373e0bb740d5,0,1,2,56,https://d3uxfe7dw0hhy7.cloudfront.net/annie-helms/cat_perception_stimuli/st4_dur2,448,25,OK,pondis,880
16373e0bb740d5,0,1,2,57,https://d3uxfe7dw0hhy7.cloudfront.net/annie-helms/cat_perception_stimuli/f4_s5,441,15,OK,pondis,823
16373e0bb740d5,0,1,2,58,https://d3uxfe7dw0hhy7.cloudfront.net/annie-helms/cat_perception_stimuli/f1_dur4,482,20,OK,pondis,881
16373e0bb740d5,0,1,2,59,https://d3uxfe7dw0hhy7.cloudfront.net/annie-helms/cat_perception_stimuli/f2_s5,441,20,OK,pondis,670
16373e0bb740d5,0,1,2,60,https://d3uxfe7dw0hhy7.cloudfront.net/annie-helms/cat_perception_stimuli/f5_dur2,476,20,OK,pondis,868
16373e0bb740d5,0,1,2,61,https://d3uxfe7dw0hhy7.cloudfront.net/annie-helms/cat_perception_stimuli/f6_dur2,484,25,OK,pondis,777
16373e0bb740d5,0,1,2,62,https://d3uxfe7dw0hhy7.cloudfront.net/annie-helms/cat_perception_stimuli/f6_s1,451,15,OK,pondis,916
16373e0bb740d5,0,1,2,63,https://d3uxfe7dw0hhy7.cloudfront.net/annie-helms/cat_perception_stimuli/st5_dur2,449,20,OK,pondis,669
16373e0bb740d5,0,1,2,64,https://d3uxfe7dw0hhy7.cloudfront.net/annie-helms/cat_perception_stimuli/f2_s4,441,20,OK,pondis,968
16373e0bb740d5,0,1,2,65,https://d3uxfe7dw0hhy7.cloudfront.net/annie-helms/cat_perception_stimuli/f3_s2,441,20,OK,pondis,900
16373e0bb740d5,0,1,2,66,https://d3uxfe7dw0hhy7.cloudfront.net/annie-helms/cat_perception_stimuli/f6_s6,451,20,OK,pondis,848
16373e0bb740d5,0,1,2,67,https://d3uxfe7dw0hhy7.cloudfront.net/annie-helms/cat_perception_stimuli/st3_dur3,448,20,OK,pondis,701
16373e0bb740d5,0,1,2,68,https://d3uxfe7dw0hhy7.cloudfront.net/annie-helms/cat_perception_stimuli/f4_dur6,480,20,OK,pondis,669
16373e0bb740d5,0,1,2,69,https://d3uxfe7dw0hhy7.cloudfront.net/annie-helms/cat_perception_stimuli/f2_dur5,474,25,OK,pondis,708
16373e0bb740d5,0,1,2,70,https://d3uxfe7dw0hhy7.cloudfront.net/annie-helms/cat_perception_stimuli/f4_s2,441,15,OK,pondis,756
16373e0bb740d5,0,1,2,71,https://d3uxfe7dw0hhy7.cloudfront.net/annie-helms/cat_perception_stimuli/f4_dur4,482,20,OK,pondis,644
16373e0bb740d5,0,1,2,72,https://d3uxfe7dw0hhy7.cloudfront.net/annie-helms/cat_perception_stimuli/f5_dur6,474,20,OK,pondis,677
16373e0bb740d5,0,1,2,73,https://d3uxfe7dw0hhy7.cloudfront.net/annie-helms/cat_perception_stimuli/f2_dur4,475,15,OK,pondis,797
16373e0bb740d5,0,1,2,74,https://d3uxfe7dw0hhy7.cloudfront.net/annie-helms/cat_perception_stimuli/f5_s6,450,15,OK,pondis,753
16373e0bb740d5,0,1,2,75,https://d3uxfe7dw0hhy7.cloudfront.net/annie-helms/cat_perception_stimuli/st5_dur6,447,20,OK,pondis,577
16373e0bb740d5,0,1,2,76,https://d3uxfe7dw0hhy7.cloudfront.net/annie-helms/cat_perception_stimuli/f4_s3,441,15,OK,pondis,640
16373e0bb740d5,0,1,2,77,https://d3uxfe7dw0hhy7.cloudfront.net/annie-helms/cat_perception_stimuli/f4_s6,441,20,OK,pondis,710
16373e0bb740d5,0,1,2,78,https://d3uxfe7dw0hhy7.cloudfront.net/annie-helms/cat_perception_stimuli/st1_dur2,448,20,OK,pondis,854
16373e0bb740d5,0,1,2,79,https://d3uxfe7dw0hhy7.cloudfront.net/annie-helms/cat_perception_stimuli/f6_s2,451,25,OK,pondis,670
16373e0bb740d5,0,1,2,80,https://d3uxfe7dw0hhy7.cloudfront.net/annie-helms/cat_perception_stimuli/f1_dur1,484,20,OK,pondis,766
16373e0bb740d5,0,1,2,81,https://d3uxfe7dw0hhy7.cloudfront.net/annie-helms/cat_perception_stimuli/f3_dur4,482,20,OK,pondis,667
16373e0bb740d5,0,1,2,82,https://d3uxfe7dw0hhy7.cloudfront.net/annie-helms/cat_perception_stimuli/st6_dur2,449,15,OK,pondis,668
16373e0bb740d5,0,1,2,83,https://d3uxfe7dw0hhy7.cloudfront.net/annie-helms/cat_perception_stimuli/st2_dur4,448,20,OK,pondis,712
16373e0bb740d5,0,1,2,84,https://d3uxfe7dw0hhy7.cloudfront.net/annie-helms/cat_perception_stimuli/st3_dur4,448,20,OK,pondis,940
16373e0bb740d5,0,1,2,85,https://d3uxfe7dw0hhy7.cloudfront.net/annie-helms/cat_perception_stimuli/f2_dur2,483,15,OK,pondis,741
16373e0bb740d5,0,1,2,86,https://d3uxfe7dw0hhy7.cloudfront.net/annie-helms/cat_perception_stimuli/f2_s1,441,15,OK,pondis,1086
16373e0bb740d5,0,1,2,87,https://d3uxfe7dw0hhy7.cloudfront.net/annie-helms/cat_perception_stimuli/f3_dur2,483,20,OK,pondis,662
16373e0bb740d5,0,1,2,88,https://d3uxfe7dw0hhy7.cloudfront.net/annie-helms/cat_perception_stimuli/st3_dur1,449,15,OK,pondis,747
16373e0bb740d5,0,1,2,89,https://d3uxfe7dw0hhy7.cloudfront.net/annie-helms/cat_perception_stimuli/f6_s4,451,25,OK,pondis,1035
16373e0bb740d5,0,1,2,90,https://d3uxfe7dw0hhy7.cloudfront.net/annie-helms/cat_perception_stimuli/f5_dur1,477,15,OK,pondis,776
16373e0bb740d5,0,1,2,91,https://d3uxfe7dw0hhy7.cloudfront.net/annie-helms/cat_perception_stimuli/f2_s3,441,20,OK,pondis,124
16373e0bb740d5,0,1,2,92,https://d3uxfe7dw0hhy7.cloudfront.net/annie-helms/cat_perception_stimuli/st6_dur3,448,20,OK,pondis,717
16373e0bb740d5,0,1,2,93,https://d3uxfe7dw0hhy7.cloudfront.net/annie-helms/cat_perception_stimuli/st3_dur5,447,15,OK,pondis,848
16373e0bb740d5,0,1,2,94,https://d3uxfe7dw0hhy7.cloudfront.net/annie-helms/cat_perception_stimuli/f5_s2,450,15,OK,pondis,820
16373e0bb740d5,0,1,2,95,https://d3uxfe7dw0hhy7.cloudfront.net/annie-helms/cat_perception_stimuli/f1_s4,441,15,OK,pondis,767
16373e0bb740d5,0,1,2,96,https://d3uxfe7dw0hhy7.cloudfront.net/annie-helms/cat_perception_stimuli/f1_s2,441,15,OK,pondis,742
16373e0bb740d5,0,1,2,97,https://d3uxfe7dw0hhy7.cloudfront.net/annie-helms/cat_perception_stimuli/st4_dur4,448,15,OK,pondis,618
16373e0bb740d5,0,1,2,98,https://d3uxfe7dw0hhy7.cloudfront.net/annie-helms/cat_perception_stimuli/f3_s1,441,15,OK,pondis,854
16373e0bb740d5,0,1,2,99,https://d3uxfe7dw0hhy7.cloudfront.net/annie-helms/cat_perception_stimuli/f6_dur1,484,15,OK,pondis,840
16373e0bb740d5,0,1,2,100,https://d3uxfe7dw0hhy7.cloudfront.net/annie-helms/cat_perception_stimuli/st6_dur1,449,20,OK,pondis,742
16373e0bb740d5,0,1,2,101,https://d3uxfe7dw0hhy7.cloudfront.net/annie-helms/cat_perception_stimuli/st2_dur5,447,20,OK,pondis,681
16373e0bb740d5,0,1,2,102,https://d3uxfe7dw0hhy7.cloudfront.net/annie-helms/cat_perception_stimuli/st2_dur2,448,20,OK,pondis,884
16373e0bb740d5,0,1,2,103,https://d3uxfe7dw0hhy7.cloudfront.net/annie-helms/cat_perception_stimuli/st3_dur6,447,15,OK,pondis,844
16373e0bb740d5,0,1,2,104,https://d3uxfe7dw0hhy7.cloudfront.net/annie-helms/cat_perception_stimuli/st1_dur1,448,20,OK,pondis,749
16373e0bb740d5,0,1,2,105,https://d3uxfe7dw0hhy7.cloudfront.net/annie-helms/cat_perception_stimuli/st4_dur3,448,20,OK,pondis,736
16373e0bb740d5,0,1,2,106,https://d3uxfe7dw0hhy7.cloudfront.net/annie-helms/cat_perception_stimuli/f5_s3,450,15,OK,pondis,787
16373e0bb740d5,0,1,2,107,https://d3uxfe7dw0hhy7.cloudfront.net/annie-helms/cat_perception_stimuli/f6_s3,451,20,OK,pondis,968
16373e0bb740d5,0,1,3,0,https://d3uxfe7dw0hhy7.cloudfront.net/annie-helms/cat_perception_stimuli/st5_dur1,449,15,OK,pondis,1421
16373e0bb740d5,0,1,3,1,https://d3uxfe7dw0hhy7.cloudfront.net/annie-helms/cat_perception_stimuli/f1_s3,441,20,OK,pondis,699
16373e0bb740d5,0,1,3,2,https://d3uxfe7dw0hhy7.cloudfront.net/annie-helms/cat_perception_stimuli/f4_dur6,480,15,OK,pondis,802
16373e0bb740d5,0,1,3,3,https://d3uxfe7dw0hhy7.cloudfront.net/annie-helms/cat_perception_stimuli/f2_s4,441,20,OK,pondis,855
16373e0bb740d5,0,1,3,4,https://d3uxfe7dw0hhy7.cloudfront.net/annie-helms/cat_perception_stimuli/f1_dur2,483,20,OK,pondis,827
16373e0bb740d5,0,1,3,5,https://d3uxfe7dw0hhy7.cloudfront.net/annie-helms/cat_perception_stimuli/f2_dur2,483,15,OK,pondis,808
16373e0bb740d5,0,1,3,6,https://d3uxfe7dw0hhy7.cloudfront.net/annie-helms/cat_perception_stimuli/st2_dur4,448,15,OK,pondis,860
16373e0bb740d5,0,1,3,7,https://d3uxfe7dw0hhy7.cloudfront.net/annie-helms/cat_perception_stimuli/st6_dur6,447,15,OK,pondis,937
16373e0bb740d5,0,1,3,8,https://d3uxfe7dw0hhy7.cloudfront.net/annie-helms/cat_perception_stimuli/f2_s1,441,20,OK,pondis,941
16373e0bb740d5,0,1,3,9,https://d3uxfe7dw0hhy7.cloudfront.net/annie-helms/cat_perception_stimuli/f4_s2,441,25,OK,pondis,783
16373e0bb740d5,0,1,3,10,https://d3uxfe7dw0hhy7.cloudfront.net/annie-helms/cat_perception_stimuli/f2_dur4,475,20,OK,pondis,752
16373e0bb740d5,0,1,3,11,https://d3uxfe7dw0hhy7.cloudfront.net/annie-helms/cat_perception_stimuli/f6_dur2,484,20,OK,pondis,1235
16373e0bb740d5,0,1,3,12,https://d3uxfe7dw0hhy7.cloudfront.net/annie-helms/cat_perception_stimuli/f3_s6,441,25,OK,pondis,1086
16373e0bb740d5,0,1,3,13,https://d3uxfe7dw0hhy7.cloudfront.net/annie-helms/cat_perception_stimuli/st3_dur3,448,20,OK,pondis,799
16373e0bb740d5,0,1,3,14,https://d3uxfe7dw0hhy7.cloudfront.net/annie-helms/cat_perception_stimuli/f3_s2,441,20,OK,pondis,706
16373e0bb740d5,0,1,3,15,https://d3uxfe7dw0hhy7.cloudfront.net/annie-helms/cat_perception_stimuli/f3_s4,441,25,OK,pondis,1076
16373e0bb740d5,0,1,3,16,https://d3uxfe7dw0hhy7.cloudfront.net/annie-helms/cat_perception_stimuli/f2_dur3,482,20,OK,pondis,773
16373e0bb740d5,0,1,3,17,https://d3uxfe7dw0hhy7.cloudfront.net/annie-helms/cat_perception_stimuli/f6_dur5,475,15,OK,pondis,740
16373e0bb740d5,0,1,3,18,https://d3uxfe7dw0hhy7.cloudfront.net/annie-helms/cat_perception_stimuli/f1_dur3,482,20,OK,pondis,783
16373e0bb740d5,0,1,3,19,https://d3uxfe7dw0hhy7.cloudfront.net/annie-helms/cat_perception_stimuli/f1_dur6,474,20,OK,pondis,1355
16373e0bb740d5,0,1,3,20,https://d3uxfe7dw0hhy7.cloudfront.net/annie-helms/cat_perception_stimuli/st2_dur6,447,15,OK,pondis,653
16373e0bb740d5,0,1,3,21,https://d3uxfe7dw0hhy7.cloudfront.net/annie-helms/cat_perception_stimuli/st1_dur5,447,20,OK,pondis,764
16373e0bb740d5,0,1,3,22,https://d3uxfe7dw0hhy7.cloudfront.net/annie-helms/cat_perception_stimuli/f3_dur1,484,20,OK,pondis,1232
16373e0bb740d5,0,1,3,23,https://d3uxfe7dw0hhy7.cloudfront.net/annie-helms/cat_perception_stimuli/st1_dur6,447,20,OK,pondis,1352
16373e0bb740d5,0,1,3,24,https://d3uxfe7dw0hhy7.cloudfront.net/annie-helms/cat_perception_stimuli/f6_s5,451,20,OK,pondis,852
16373e0bb740d5,0,1,3,25,https://d3uxfe7dw0hhy7.cloudfront.net/annie-helms/cat_perception_stimuli/st2_dur2,448,20,OK,pondis,1196
16373e0bb740d5,0,1,3,26,https://d3uxfe7dw0hhy7.cloudfront.net/annie-helms/cat_perception_stimuli/f5_s5,450,20,OK,pondis,981
16373e0bb740d5,0,1,3,27,https://d3uxfe7dw0hhy7.cloudfront.net/annie-helms/cat_perception_stimuli/f3_dur5,474,15,OK,pondis,1013
16373e0bb740d5,0,1,3,28,https://d3uxfe7dw0hhy7.cloudfront.net/annie-helms/cat_perception_stimuli/f6_s1,451,15,OK,pondis,703
16373e0bb740d5,0,1,3,29,https://d3uxfe7dw0hhy7.cloudfront.net/annie-helms/cat_perception_stimuli/st5_dur4,448,20,OK,pondis,890
16373e0bb740d5,0,1,3,30,https://d3uxfe7dw0hhy7.cloudfront.net/annie-helms/cat_perception_stimuli/f6_s3,451,20,OK,pondis,805
16373e0bb740d5,0,1,3,31,https://d3uxfe7dw0hhy7.cloudfront.net/annie-helms/cat_perception_stimuli/f6_dur1,484,15,OK,pondis,585
16373e0bb740d5,0,1,3,32,https://d3uxfe7dw0hhy7.cloudfront.net/annie-helms/cat_perception_stimuli/st3_dur4,448,20,OK,pondis,642
16373e0bb740d5,0,1,3,33,https://d3uxfe7dw0hhy7.cloudfront.net/annie-helms/cat_perception_stimuli/f2_dur1,484,15,OK,pondis,682
16373e0bb740d5,0,1,3,34,https://d3uxfe7dw0hhy7.cloudfront.net/annie-helms/cat_perception_stimuli/f4_s4,441,20,OK,pondis,863
16373e0bb740d5,0,1,3,35,https://d3uxfe7dw0hhy7.cloudfront.net/annie-helms/cat_perception_stimuli/st6_dur2,449,25,OK,pondis,618
16373e0bb740d5,0,1,3,36,https://d3uxfe7dw0hhy7.cloudfront.net/annie-helms/cat_perception_stimuli/f4_dur4,482,25,OK,pondis,619
16373e0bb740d5,0,1,3,37,https://d3uxfe7dw0hhy7.cloudfront.net/annie-helms/cat_perception_stimuli/f3_s3,441,20,OK,pondis,924
16373e0bb740d5,0,1,3,38,https://d3uxfe7dw0hhy7.cloudfront.net/annie-helms/cat_perception_stimuli/st1_dur2,448,20,OK,pondis,718
16373e0bb740d5,0,1,3,39,https://d3uxfe7dw0hhy7.cloudfront.net/annie-helms/cat_perception_stimuli/st2_dur3,448,15,OK,pondis,706
16373e0bb740d5,0,1,3,40,https://d3uxfe7dw0hhy7.cloudfront.net/annie-helms/cat_perception_stimuli/f3_s1,441,15,OK,pondis,650
16373e0bb740d5,0,1,3,41,https://d3uxfe7dw0hhy7.cloudfront.net/annie-helms/cat_perception_stimuli/st5_dur5,448,15,OK,pondis,625
16373e0bb740d5,0,1,3,42,https://d3uxfe7dw0hhy7.cloudfront.net/annie-helms/cat_perception_stimuli/f2_s5,441,15,OK,pondis,653
16373e0bb740d5,0,1,3,43,https://d3uxfe7dw0hhy7.cloudfront.net/annie-helms/cat_perception_stimuli/st2_dur5,447,20,OK,pondis,633
16373e0bb740d5,0,1,3,44,https://d3uxfe7dw0hhy7.cloudfront.net/annie-helms/cat_perception_stimuli/f3_dur3,475,20,OK,pondis,611
16373e0bb740d5,0,1,3,45,https://d3uxfe7dw0hhy7.cloudfront.net/annie-helms/cat_perception_stimuli/f4_s3,441,20,OK,pondis,687
16373e0bb740d5,0,1,3,46,https://d3uxfe7dw0hhy7.cloudfront.net/annie-helms/cat_perception_stimuli/f6_dur6,477,20,OK,pondis,801
16373e0bb740d5,0,1,3,47,https://d3uxfe7dw0hhy7.cloudfront.net/annie-helms/cat_perception_stimuli/f5_dur3,476,15,OK,pondis,661
16373e0bb740d5,0,1,3,48,https://d3uxfe7dw0hhy7.cloudfront.net/annie-helms/cat_perception_stimuli/f4_s1,441,20,OK,pondis,659
16373e0bb740d5,0,1,3,49,https://d3uxfe7dw0hhy7.cloudfront.net/annie-helms/cat_perception_stimuli/st3_dur5,447,20,OK,pondis,587
16373e0bb740d5,0,1,3,50,https://d3uxfe7dw0hhy7.cloudfront.net/annie-helms/cat_perception_stimuli/st2_dur1,449,20,OK,pondis,729
16373e0bb740d5,0,1,3,51,https://d3uxfe7dw0hhy7.cloudfront.net/annie-helms/cat_perception_stimuli/f5_dur5,474,20,OK,pondis,509
16373e0bb740d5,0,1,3,52,https://d3uxfe7dw0hhy7.cloudfront.net/annie-helms/cat_perception_stimuli/st5_dur2,449,15,OK,pondis,588
16373e0bb740d5,0,1,3,53,https://d3uxfe7dw0hhy7.cloudfront.net/annie-helms/cat_perception_stimuli/st4_dur1,449,25,OK,pondis,523
16373e0bb740d5,0,1,3,54,https://d3uxfe7dw0hhy7.cloudfront.net/annie-helms/cat_perception_stimuli/st4_dur3,448,25,OK,pondis,651
16373e0bb740d5,0,1,3,55,https://d3uxfe7dw0hhy7.cloudfront.net/annie-helms/cat_perception_stimuli/st6_dur3,448,15,OK,pondis,635
16373e0bb740d5,0,1,3,56,https://d3uxfe7dw0hhy7.cloudfront.net/annie-helms/cat_perception_stimuli/f4_dur5,475,15,OK,pondis,672
16373e0bb740d5,0,1,3,57,https://d3uxfe7dw0hhy7.cloudfront.net/annie-helms/cat_perception_stimuli/f5_dur2,476,20,OK,pondis,651
16373e0bb740d5,0,1,3,58,https://d3uxfe7dw0hhy7.cloudfront.net/annie-helms/cat_perception_stimuli/f1_dur5,474,15,OK,pondis,604
16373e0bb740d5,0,1,3,59,https://d3uxfe7dw0hhy7.cloudfront.net/annie-helms/cat_perception_stimuli/f5_dur1,477,20,OK,pondis,664
16373e0bb740d5,0,1,3,60,https://d3uxfe7dw0hhy7.cloudfront.net/annie-helms/cat_perception_stimuli/f2_dur5,474,15,OK,pondis,702
16373e0bb740d5,0,1,3,61,https://d3uxfe7dw0hhy7.cloudfront.net/annie-helms/cat_perception_stimuli/f2_s3,441,20,OK,pondis,582
16373e0bb740d5,0,1,3,62,https://d3uxfe7dw0hhy7.cloudfront.net/annie-helms/cat_perception_stimuli/f1_s5,441,20,OK,pondis,555
16373e0bb740d5,0,1,3,63,https://d3uxfe7dw0hhy7.cloudfront.net/annie-helms/cat_perception_stimuli/st6_dur4,448,15,OK,pondis,616
16373e0bb740d5,0,1,3,64,https://d3uxfe7dw0hhy7.cloudfront.net/annie-helms/cat_perception_stimuli/f3_dur2,483,20,OK,pondis,681
16373e0bb740d5,0,1,3,65,https://d3uxfe7dw0hhy7.cloudfront.net/annie-helms/cat_perception_stimuli/f6_s4,451,15,OK,pondis,703
16373e0bb740d5,0,1,3,66,https://d3uxfe7dw0hhy7.cloudfront.net/annie-helms/cat_perception_stimuli/f3_dur6,480,20,OK,pondis,623
16373e0bb740d5,0,1,3,67,https://d3uxfe7dw0hhy7.cloudfront.net/annie-helms/cat_perception_stimuli/st6_dur1,449,15,OK,pondis,581
16373e0bb740d5,0,1,3,68,https://d3uxfe7dw0hhy7.cloudfront.net/annie-helms/cat_perception_stimuli/f1_dur4,482,20,OK,pondis,671
16373e0bb740d5,0,1,3,69,https://d3uxfe7dw0hhy7.cloudfront.net/annie-helms/cat_perception_stimuli/f3_dur4,482,15,OK,pondis,625
16373e0bb740d5,0,1,3,70,https://d3uxfe7dw0hhy7.cloudfront.net/annie-helms/cat_perception_stimuli/st4_dur6,447,20,OK,pondis,680
16373e0bb740d5,0,1,3,71,https://d3uxfe7dw0hhy7.cloudfront.net/annie-helms/cat_perception_stimuli/f1_s4,441,20,OK,pondis,639
16373e0bb740d5,0,1,3,72,https://d3uxfe7dw0hhy7.cloudfront.net/annie-helms/cat_perception_stimuli/st4_dur4,448,20,OK,pondis,647
16373e0bb740d5,0,1,3,73,https://d3uxfe7dw0hhy7.cloudfront.net/annie-helms/cat_perception_stimuli/st3_dur2,448,20,OK,pondis,688
16373e0bb740d5,0,1,3,74,https://d3uxfe7dw0hhy7.cloudfront.net/annie-helms/cat_perception_stimuli/f1_s2,441,25,OK,pondis,1125
16373e0bb740d5,0,1,3,75,https://d3uxfe7dw0hhy7.cloudfront.net/annie-helms/cat_perception_stimuli/f4_s5,441,20,OK,pondis,957
16373e0bb740d5,0,1,3,76,https://d3uxfe7dw0hhy7.cloudfront.net/annie-helms/cat_perception_stimuli/f4_s6,441,20,OK,pondis,907
16373e0bb740d5,0,1,3,77,https://d3uxfe7dw0hhy7.cloudfront.net/annie-helms/cat_perception_stimuli/f6_dur4,482,15,OK,pondis,2363
16373e0bb740d5,0,1,3,78,https://d3uxfe7dw0hhy7.cloudfront.net/annie-helms/cat_perception_stimuli/st4_dur5,447,25,OK,pondis,614
16373e0bb740d5,0,1,3,79,https://d3uxfe7dw0hhy7.cloudfront.net/annie-helms/cat_perception_stimuli/f4_dur3,483,20,OK,pondis,692
16373e0bb740d5,0,1,3,80,https://d3uxfe7dw0hhy7.cloudfront.net/annie-helms/cat_perception_stimuli/f4_dur2,483,15,OK,pondis,886
16373e0bb740d5,0,1,3,81,https://d3uxfe7dw0hhy7.cloudfront.net/annie-helms/cat_perception_stimuli/f5_s1,450,20,OK,pondis,847
16373e0bb740d5,0,1,3,82,https://d3uxfe7dw0hhy7.cloudfront.net/annie-helms/cat_perception_stimuli/f5_s6,450,20,OK,pondis,984
16373e0bb740d5,0,1,3,83,https://d3uxfe7dw0hhy7.cloudfront.net/annie-helms/cat_perception_stimuli/st3_dur6,447,15,OK,pondis,2100
16373e0bb740d5,0,1,3,84,https://d3uxfe7dw0hhy7.cloudfront.net/annie-helms/cat_perception_stimuli/f6_s2,451,20,OK,pondis,642
16373e0bb740d5,0,1,3,85,https://d3uxfe7dw0hhy7.cloudfront.net/annie-helms/cat_perception_stimuli/f2_s6,441,20,OK,pondis,751
16373e0bb740d5,0,1,3,86,https://d3uxfe7dw0hhy7.cloudfront.net/annie-helms/cat_perception_stimuli/st1_dur1,448,15,OK,pondis,774
16373e0bb740d5,0,1,3,87,https://d3uxfe7dw0hhy7.cloudfront.net/annie-helms/cat_perception_stimuli/f5_s2,450,15,OK,pondis,602
16373e0bb740d5,0,1,3,88,https://d3uxfe7dw0hhy7.cloudfront.net/annie-helms/cat_perception_stimuli/st5_dur6,447,15,OK,pondis,581
16373e0bb740d5,0,1,3,89,https://d3uxfe7dw0hhy7.cloudfront.net/annie-helms/cat_perception_stimuli/f5_s4,450,25,OK,pondis,476
16373e0bb740d5,0,1,3,90,https://d3uxfe7dw0hhy7.cloudfront.net/annie-helms/cat_perception_stimuli/st6_dur5,448,20,OK,pondis,577
16373e0bb740d5,0,1,3,91,https://d3uxfe7dw0hhy7.cloudfront.net/annie-helms/cat_perception_stimuli/f1_dur1,484,20,OK,pondis,738
16373e0bb740d5,0,1,3,92,https://d3uxfe7dw0hhy7.cloudfront.net/annie-helms/cat_perception_stimuli/st3_dur1,449,20,OK,pondis,631
16373e0bb740d5,0,1,3,93,https://d3uxfe7dw0hhy7.cloudfront.net/annie-helms/cat_perception_stimuli/st1_dur3,448,20,OK,pondis,809
16373e0bb740d5,0,1,3,94,https://d3uxfe7dw0hhy7.cloudfront.net/annie-helms/cat_perception_stimuli/f4_dur1,484,20,OK,pondis,520
16373e0bb740d5,0,1,3,95,https://d3uxfe7dw0hhy7.cloudfront.net/annie-helms/cat_perception_stimuli/f1_s1,441,20,OK,pondis,611
16373e0bb740d5,0,1,3,96,https://d3uxfe7dw0hhy7.cloudfront.net/annie-helms/cat_perception_stimuli/f6_s6,451,15,OK,pondis,729
16373e0bb740d5,0,1,3,97,https://d3uxfe7dw0hhy7.cloudfront.net/annie-helms/cat_perception_stimuli/f5_s3,450,20,OK,pondis,833
16373e0bb740d5,0,1,3,98,https://d3uxfe7dw0hhy7.cloudfront.net/annie-helms/cat_perception_stimuli/st4_dur2,448,15,OK,pondis,639
16373e0bb740d5,0,1,3,99,https://d3uxfe7dw0hhy7.cloudfront.net/annie-helms/cat_perception_stimuli/st5_dur3,448,20,OK,pondis,562
16373e0bb740d5,0,1,3,100,https://d3uxfe7dw0hhy7.cloudfront.net/annie-helms/cat_perception_stimuli/st1_dur4,447,20,OK,pondis,557
16373e0bb740d5,0,1,3,101,https://d3uxfe7dw0hhy7.cloudfront.net/annie-helms/cat_perception_stimuli/f3_s5,441,20,OK,pondis,537
16373e0bb740d5,0,1,3,102,https://d3uxfe7dw0hhy7.cloudfront.net/annie-helms/cat_perception_stimuli/f5_dur4,475,15,OK,pondis,567
16373e0bb740d5,0,1,3,103,https://d3uxfe7dw0hhy7.cloudfront.net/annie-helms/cat_perception_stimuli/f5_dur6,474,15,OK,pondis,524
16373e0bb740d5,0,1,3,104,https://d3uxfe7dw0hhy7.cloudfront.net/annie-helms/cat_perception_stimuli/f2_s2,441,15,OK,pondis,465
16373e0bb740d5,0,1,3,105,https://d3uxfe7dw0hhy7.cloudfront.net/annie-helms/cat_perception_stimuli/f1_s6,441,20,OK,pondis,525
16373e0bb740d5,0,1,3,106,https://d3uxfe7dw0hhy7.cloudfront.net/annie-helms/cat_perception_stimuli/f6_dur3,483,15,OK,pondis,568
16373e0bb740d5,0,1,3,107,https://d3uxfe7dw0hhy7.cloudfront.net/annie-helms/cat_perception_stimuli/f2_dur6,474,20,OK,pondis,565
16373e83ad2b01,9c3b,1,1,0,https://d3uxfe7dw0hhy7.cloudfront.net/annie-helms/cat_perception_stimuli/f1_dur4,482,20,OK,pondís,1006
16373e83ad2b01,9c3b,1,1,1,https://d3uxfe7dw0hhy7.cloudfront.net/annie-helms/cat_perception_stimuli/f1_s4,441,20,OK,pondís,1
16373e83ad2b01,9c3b,1,1,2,https://d3uxfe7dw0hhy7.cloudfront.net/annie-helms/cat_perception_stimuli/st3_dur3,448,20,OK,pondís,276
16373e83ad2b01,9c3b,1,1,3,https://d3uxfe7dw0hhy7.cloudfront.net/annie-helms/cat_perception_stimuli/st3_dur4,448,15,OK,pondís,350
16373e83ad2b01,9c3b,1,1,4,https://d3uxfe7dw0hhy7.cloudfront.net/annie-helms/cat_perception_stimuli/st4_dur2,448,15,OK,pondís,118
16373e83ad2b01,9c3b,1,1,5,https://d3uxfe7dw0hhy7.cloudfront.net/annie-helms/cat_perception_stimuli/f5_s2,450,15,OK,pondís,257
16373e83ad2b01,9c3b,1,1,6,https://d3uxfe7dw0hhy7.cloudfront.net/annie-helms/cat_perception_stimuli/f6_s5,451,15,early_response,pondís,1521
16373e83ad2b01,9c3b,1,1,7,https://d3uxfe7dw0hhy7.cloudfront.net/annie-helms/cat_perception_stimuli/f4_s4,441,15,early_response,pondís,1088
16373e83ad2b01,9c3b,1,1,8,https://d3uxfe7dw0hhy7.cloudfront.net/annie-helms/cat_perception_stimuli/f2_dur3,482,15,OK,pondís,596
16373e83ad2b01,9c3b,1,1,9,https://d3uxfe7dw0hhy7.cloudfront.net/annie-helms/cat_perception_stimuli/st1_dur5,447,15,OK,pondís,765
16373e83ad2b01,9c3b,1,1,10,https://d3uxfe7dw0hhy7.cloudfront.net/annie-helms/cat_perception_stimuli/f2_s4,441,15,OK,pondís,687
16373e83ad2b01,9c3b,1,1,11,https://d3uxfe7dw0hhy7.cloudfront.net/annie-helms/cat_perception_stimuli/st1_dur4,447,15,OK,pondís,952
16373e83ad2b01,9c3b,1,1,12,https://d3uxfe7dw0hhy7.cloudfront.net/annie-helms/cat_perception_stimuli/f3_dur5,474,15,OK,pondís,2756
16373e83ad2b01,9c3b,1,1,13,https://d3uxfe7dw0hhy7.cloudfront.net/annie-helms/cat_perception_stimuli/f2_dur6,474,15,OK,pondís,635
16373e83ad2b01,9c3b,1,1,14,https://d3uxfe7dw0hhy7.cloudfront.net/annie-helms/cat_perception_stimuli/st2_dur1,449,15,OK,pondís,608
16373e83ad2b01,9c3b,1,1,15,https://d3uxfe7dw0hhy7.cloudfront.net/annie-helms/cat_perception_stimuli/st2_dur5,447,20,OK,pondís,399
16373e83ad2b01,9c3b,1,1,16,https://d3uxfe7dw0hhy7.cloudfront.net/annie-helms/cat_perception_stimuli/f2_s1,441,15,OK,pondís,545
