subjID,partID,list,block,trial,file1,filedur,loadtime,status,response,rt,response_binary,filename,formant,spectilt,duration,formant_center,spectilt_center,duration_center,lang_profile,pc1,pc2
263d1df1212401,acj047,2,1,1,https://d3uxfe7dw0hhy7.cloudfront.net/annie-helms/new_english/F2_dur4,431,25,OK,PONdiss,1582.0,pen,F2_dur4,2.0,3.0,4.0,-1.0,0.0,1.0,mono,,
263d1df1212401,acj047,2,1,2,https://d3uxfe7dw0hhy7.cloudfront.net/annie-helms/new_english/F1_st2,425,35,OK,PONdiss,1355.0,pen,F1_st2,1.0,2.0,3.0,-2.0,-1.0,0.0,mono,,
263d1df1212401,acj047,2,1,4,https://d3uxfe7dw0hhy7.cloudfront.net/annie-helms/new_english/st2_dur4,411,45,OK,ponDISS,1310.0,ult,st2_dur4,3.0,2.0,4.0,0.0,-1.0,1.0,mono,,
263d1df1212401,acj047,2,1,5,https://d3uxfe7dw0hhy7.cloudfront.net/annie-helms/new_english/st3_dur2,456,45,OK,PONdiss,2383.0,pen,st3_dur2,3.0,3.0,2.0,0.0,0.0,-1.0,mono,,
263d1df1212401,acj047,2,1,6,https://d3uxfe7dw0hhy7.cloudfront.net/annie-helms/new_english/F1_st1,425,40,OK,PONdiss,1160.0,pen,F1_st1,1.0,1.0,3.0,-2.0,-2.0,0.0,mono,,
263d1df1212401,acj047,2,1,8,https://d3uxfe7dw0hhy7.cloudfront.net/annie-helms/new_english/F4_dur3,429,35,OK,PONdiss,1225.0,pen,F4_dur3,4.0,3.0,3.0,1.0,0.0,0.0,mono,,
263d1df1212401,acj047,2,1,9,https://d3uxfe7dw0hhy7.cloudfront.net/annie-helms/new_english/F2_st4,438,45,OK,ponDISS,1743.0,ult,F2_st4,2.0,4.0,3.0,-1.0,1.0,0.0,mono,,
263d1df1212401,acj047,2,1,10,https://d3uxfe7dw0hhy7.cloudfront.net/annie-helms/new_english/st1_dur2,456,40,OK,PONdiss,1438.0,pen,st1_dur2,3.0,1.0,2.0,0.0,-2.0,-1.0,mono,,
263d1df1212401,acj047,2,1,11,https://d3uxfe7dw0hhy7.cloudfront.net/annie-helms/new_english/F3_dur5,389,55,OK,ponDISS,1100.0,ult,F3_dur5,3.0,3.0,5.0,0.0,0.0,2.0,mono,,
263d1df1212401,acj047,2,1,14,https://d3uxfe7dw0hhy7.cloudfront.net/annie-helms/new_english/F5_dur3,438,40,OK,PONdiss,1017.0,pen,F5_dur3,5.0,3.0,3.0,2.0,0.0,0.0,mono,,
263d1df1212401,acj047,2,1,15,https://d3uxfe7dw0hhy7.cloudfront.net/annie-helms/new_english/F1_st3,425,50,OK,PONdiss,996.0,pen,F1_st3,1.0,3.0,3.0,-2.0,0.0,0.0,mono,,
263d1df1212401,acj047,2,1,16,https://d3uxfe7dw0hhy7.cloudfront.net/annie-helms/new_english/F2_st1,438,40,OK,PONdiss,982.0,pen,F2_st1,2.0,1.0,3.0,-1.0,-2.0,0.0,mono,,
263d1df1212401,acj047,2,1,17,https://d3uxfe7dw0hhy7.cloudfront.net/annie-helms/new_english/F5_dur5,393,45,OK,PONdiss,999.0,pen,F5_dur5,5.0,3.0,5.0,2.0,0.0,2.0,mono,,
263d1df1212401,acj047,2,1,18,https://d3uxfe7dw0hhy7.cloudfront.net/annie-helms/new_english/F5_st2,422,35,OK,PONdiss,863.0,pen,F5_st2,5.0,2.0,3.0,2.0,-1.0,0.0,mono,,
263d1df1212401,acj047,2,1,19,https://d3uxfe7dw0hhy7.cloudfront.net/annie-helms/new_english/F2_st2,438,40,OK,PONdiss,974.0,pen,F2_st2,2.0,2.0,3.0,-1.0,-1.0,0.0,mono,,
263d1df1212401,acj047,2,1,20,https://d3uxfe7dw0hhy7.cloudfront.net/annie-helms/new_english/st2_dur2,456,40,OK,PONdiss,1197.0,pen,st2_dur2,3.0,2.0,2.0,0.0,-1.0,-1.0,mono,,
263d1df1212401,acj047,2,1,21,https://d3uxfe7dw0hhy7.cloudfront.net/annie-helms/new_english/F3_dur3,434,45,OK,PONdiss,939.0,pen,F3_dur3,3.0,3.0,3.0,0.0,0.0,0.0,mono,,
263d1df1212401,acj047,2,1,22,https://d3uxfe7dw0hhy7.cloudfront.net/annie-helms/new_english/st3_dur1,478,50,OK,PONdiss,880.0,pen,st3_dur1,3.0,3.0,1.0,0.0,0.0,-2.0,mono,,
263d1df1212401,acj047,2,1,23,https://d3uxfe7dw0hhy7.cloudfront.net/annie-helms/new_english/st2_dur3,434,45,OK,PONdiss,694.0,pen,st2_dur3,3.0,2.0,3.0,0.0,-1.0,0.0,mono,,
263d1df1212401,acj047,2,1,24,https://d3uxfe7dw0hhy7.cloudfront.net/annie-helms/new_english/st4_dur5,389,50,OK,PONdiss,731.0,pen,st4_dur5,3.0,4.0,5.0,0.0,1.0,2.0,mono,,
263d1df1212401,acj047,2,1,25,https://d3uxfe7dw0hhy7.cloudfront.net/annie-helms/new_english/F5_st4,422,50,OK,PONdiss,1680.0,pen,F5_st4,5.0,4.0,3.0,2.0,1.0,0.0,mono,,
263d1df1212401,acj047,2,1,26,https://d3uxfe7dw0hhy7.cloudfront.net/annie-helms/new_english/F5_st5,422,55,OK,PONdiss,1304.0,pen,F5_st5,5.0,5.0,3.0,2.0,2.0,0.0,mono,,
263d1df1212401,acj047,2,1,27,https://d3uxfe7dw0hhy7.cloudfront.net/annie-helms/new_english/st3_dur4,411,40,OK,PONdiss,673.0,pen,st3_dur4,3.0,3.0,4.0,0.0,0.0,1.0,mono,,
263d1df1212401,acj047,2,1,28,https://d3uxfe7dw0hhy7.cloudfront.net/annie-helms/new_english/F4_st5,414,40,OK,ponDISS,1519.0,ult,F4_st5,4.0,5.0,3.0,1.0,2.0,0.0,mono,,
263d1df1212401,acj047,2,1,29,https://d3uxfe7dw0hhy7.cloudfront.net/annie-helms/new_english/F1_dur2,463,35,OK,PONdiss,823.0,pen,F1_dur2,1.0,3.0,2.0,-2.0,0.0,-1.0,mono,,
263d1df1212401,acj047,2,1,30,https://d3uxfe7dw0hhy7.cloudfront.net/annie-helms/new_english/F5_dur2,460,45,OK,ponDISS,2174.0,ult,F5_dur2,5.0,3.0,2.0,2.0,0.0,-1.0,mono,,
263d1df1212401,acj047,2,1,31,https://d3uxfe7dw0hhy7.cloudfront.net/annie-helms/new_english/st4_dur2,456,45,OK,PONdiss,668.0,pen,st4_dur2,3.0,4.0,2.0,0.0,1.0,-1.0,mono,,
263d1df1212401,acj047,2,1,32,https://d3uxfe7dw0hhy7.cloudfront.net/annie-helms/new_english/F1_dur1,485,35,OK,PONdiss,867.0,pen,F1_dur1,1.0,3.0,1.0,-2.0,0.0,-2.0,mono,,
263d1df1212401,acj047,2,1,33,https://d3uxfe7dw0hhy7.cloudfront.net/annie-helms/new_english/F3_st5,418,35,OK,ponDISS,1391.0,ult,F3_st5,3.0,5.0,3.0,0.0,2.0,0.0,mono,,
263d1df1212401,acj047,2,1,34,https://d3uxfe7dw0hhy7.cloudfront.net/annie-helms/new_english/st4_dur1,478,45,OK,PONdiss,720.0,pen,st4_dur1,3.0,4.0,1.0,0.0,1.0,-2.0,mono,,
263d1df1212401,acj047,2,1,35,https://d3uxfe7dw0hhy7.cloudfront.net/annie-helms/new_english/F4_st4,414,35,OK,PONdiss,794.0,pen,F4_st4,4.0,4.0,3.0,1.0,1.0,0.0,mono,,
263d1df1212401,acj047,2,1,36,https://d3uxfe7dw0hhy7.cloudfront.net/annie-helms/new_english/st1_dur5,389,40,OK,ponDISS,1566.0,ult,st1_dur5,3.0,1.0,5.0,0.0,-2.0,2.0,mono,,
263d1df1212401,acj047,2,1,37,https://d3uxfe7dw0hhy7.cloudfront.net/annie-helms/new_english/st4_dur3,434,25,OK,PONdiss,1957.0,pen,st4_dur3,3.0,4.0,3.0,0.0,1.0,0.0,mono,,
263d1df1212401,acj047,2,1,38,https://d3uxfe7dw0hhy7.cloudfront.net/annie-helms/new_english/F4_st2,414,30,OK,PONdiss,873.0,pen,F4_st2,4.0,2.0,3.0,1.0,-1.0,0.0,mono,,
263d1df1212401,acj047,2,1,39,https://d3uxfe7dw0hhy7.cloudfront.net/annie-helms/new_english/F3_st2,418,35,OK,PONdiss,869.0,pen,F3_st2,3.0,2.0,3.0,0.0,-1.0,0.0,mono,,
263d1df1212401,acj047,2,1,40,https://d3uxfe7dw0hhy7.cloudfront.net/annie-helms/new_english/F3_st4,418,40,OK,PONdiss,646.0,pen,F3_st4,3.0,4.0,3.0,0.0,1.0,0.0,mono,,
263d1df1212401,acj047,2,1,41,https://d3uxfe7dw0hhy7.cloudfront.net/annie-helms/new_english/F5_st1,422,50,OK,PONdiss,870.0,pen,F5_st1,5.0,1.0,3.0,2.0,-2.0,0.0,mono,,
263d1df1212401,acj047,2,1,42,https://d3uxfe7dw0hhy7.cloudfront.net/annie-helms/new_english/st1_dur3,434,40,OK,PONdiss,711.0,pen,st1_dur3,3.0,1.0,3.0,0.0,-2.0,0.0,mono,,
263d1df1212401,acj047,2,1,44,https://d3uxfe7dw0hhy7.cloudfront.net/annie-helms/new_english/F5_st3,422,30,OK,PONdiss,1504.0,pen,F5_st3,5.0,3.0,3.0,2.0,0.0,0.0,mono,,
263d1df1212401,acj047,2,1,45,https://d3uxfe7dw0hhy7.cloudfront.net/annie-helms/new_english/F2_st3,438,40,OK,PONdiss,1510.0,pen,F2_st3,2.0,3.0,3.0,-1.0,0.0,0.0,mono,,
263d1df1212401,acj047,2,1,46,https://d3uxfe7dw0hhy7.cloudfront.net/annie-helms/new_english/F3_st3,418,50,OK,ponDISS,2276.0,ult,F3_st3,3.0,3.0,3.0,0.0,0.0,0.0,mono,,
263d1df1212401,acj047,2,1,47,https://d3uxfe7dw0hhy7.cloudfront.net/annie-helms/new_english/st2_dur1,478,40,OK,PONdiss,939.0,pen,st2_dur1,3.0,2.0,1.0,0.0,-1.0,-2.0,mono,,
263d1df1212401,acj047,2,1,48,https://d3uxfe7dw0hhy7.cloudfront.net/annie-helms/new_english/F1_dur5,396,40,OK,ponDISS,960.0,ult,F1_dur5,1.0,3.0,5.0,-2.0,0.0,2.0,mono,,
263d1df1212401,acj047,2,1,49,https://d3uxfe7dw0hhy7.cloudfront.net/annie-helms/new_english/F1_st5,425,45,OK,ponDISS,2288.0,ult,F1_st5,1.0,5.0,3.0,-2.0,2.0,0.0,mono,,
263d1df1212401,acj047,2,1,50,https://d3uxfe7dw0hhy7.cloudfront.net/annie-helms/new_english/st5_dur4,411,50,OK,ponDISS,1096.0,ult,st5_dur4,3.0,5.0,4.0,0.0,2.0,1.0,mono,,
263d1df1212401,acj047,2,1,51,https://d3uxfe7dw0hhy7.cloudfront.net/annie-helms/new_english/st2_dur5,389,40,OK,ponDISS,778.0,ult,st2_dur5,3.0,2.0,5.0,0.0,-1.0,2.0,mono,,
263d1df1212401,acj047,2,1,52,https://d3uxfe7dw0hhy7.cloudfront.net/annie-helms/new_english/st3_dur5,389,50,OK,ponDISS,709.0,ult,st3_dur5,3.0,3.0,5.0,0.0,0.0,2.0,mono,,
263d1df1212401,acj047,2,1,53,https://d3uxfe7dw0hhy7.cloudfront.net/annie-helms/new_english/st1_dur1,478,40,OK,PONdiss,877.0,pen,st1_dur1,3.0,1.0,1.0,0.0,-2.0,-2.0,mono,,
263d1df1212401,acj047,2,1,54,https://d3uxfe7dw0hhy7.cloudfront.net/annie-helms/new_english/st5_dur2,456,50,OK,ponDISS,1344.0,ult,st5_dur2,3.0,5.0,2.0,0.0,2.0,-1.0,mono,,
263d1df1212401,acj047,2,1,55,https://d3uxfe7dw0hhy7.cloudfront.net/annie-helms/new_english/F4_st3,414,30,OK,ponDISS,881.0,ult,F4_st3,4.0,3.0,3.0,1.0,0.0,0.0,mono,,
263d1df1212401,acj047,2,1,56,https://d3uxfe7dw0hhy7.cloudfront.net/annie-helms/new_english/F4_dur2,451,45,OK,PONdiss,824.0,pen,F4_dur2,4.0,3.0,2.0,1.0,0.0,-1.0,mono,,
263d1df1212401,acj047,2,1,57,https://d3uxfe7dw0hhy7.cloudfront.net/annie-helms/new_english/st5_dur1,478,40,OK,PONdiss,804.0,pen,st5_dur1,3.0,5.0,1.0,0.0,2.0,-2.0,mono,,
263d1df1212401,acj047,2,1,58,https://d3uxfe7dw0hhy7.cloudfront.net/annie-helms/new_english/F3_dur1,478,40,OK,PONdiss,2232.0,pen,F3_dur1,3.0,3.0,1.0,0.0,0.0,-2.0,mono,,
263d1df1212401,acj047,2,1,59,https://d3uxfe7dw0hhy7.cloudfront.net/annie-helms/new_english/F1_dur4,418,50,OK,PONdiss,1036.0,pen,F1_dur4,1.0,3.0,4.0,-2.0,0.0,1.0,mono,,
263d1df1212401,acj047,2,1,60,https://d3uxfe7dw0hhy7.cloudfront.net/annie-helms/new_english/F1_dur3,441,25,OK,PONdiss,728.0,pen,F1_dur3,1.0,3.0,3.0,-2.0,0.0,0.0,mono,,
263d1df1212401,acj047,2,1,61,https://d3uxfe7dw0hhy7.cloudfront.net/annie-helms/new_english/F4_dur5,384,30,OK,ponDISS,951.0,ult,F4_dur5,4.0,3.0,5.0,1.0,0.0,2.0,mono,,
263d1df1212401,acj047,2,1,62,https://d3uxfe7dw0hhy7.cloudfront.net/annie-helms/new_english/F2_dur1,498,35,OK,PONdiss,1127.0,pen,F2_dur1,2.0,3.0,1.0,-1.0,0.0,-2.0,mono,,
263d1df1212401,acj047,2,1,63,https://d3uxfe7dw0hhy7.cloudfront.net/annie-helms/new_english/F1_st4,425,50,OK,PONdiss,777.0,pen,F1_st4,1.0,4.0,3.0,-2.0,1.0,0.0,mono,,
263d1df1212401,acj047,2,1,64,https://d3uxfe7dw0hhy7.cloudfront.net/annie-helms/new_english/F5_dur1,482,50,OK,PONdiss,1565.0,pen,F5_dur1,5.0,3.0,1.0,2.0,0.0,-2.0,mono,,
263d1df1212401,acj047,2,1,65,https://d3uxfe7dw0hhy7.cloudfront.net/annie-helms/new_english/F2_dur2,475,55,OK,PONdiss,837.0,pen,F2_dur2,2.0,3.0,2.0,-1.0,0.0,-1.0,mono,,
263d1df1212401,acj047,2,1,66,https://d3uxfe7dw0hhy7.cloudfront.net/annie-helms/new_english/F2_dur3,453,50,OK,PONdiss,733.0,pen,F2_dur3,2.0,3.0,3.0,-1.0,0.0,0.0,mono,,
263d1df1212401,acj047,2,1,67,https://d3uxfe7dw0hhy7.cloudfront.net/annie-helms/new_english/F4_dur1,474,35,OK,PONdiss,678.0,pen,F4_dur1,4.0,3.0,1.0,1.0,0.0,-2.0,mono,,
263d1df1212401,acj047,2,1,68,https://d3uxfe7dw0hhy7.cloudfront.net/annie-helms/new_english/F4_st1,414,40,OK,PONdiss,693.0,pen,F4_st1,4.0,1.0,3.0,1.0,-2.0,0.0,mono,,
263d1df1212401,acj047,2,1,69,https://d3uxfe7dw0hhy7.cloudfront.net/annie-helms/new_english/F2_st5,438,45,OK,PONdiss,717.0,pen,F2_st5,2.0,5.0,3.0,-1.0,2.0,0.0,mono,,
263d1df1212401,acj047,2,1,70,https://d3uxfe7dw0hhy7.cloudfront.net/annie-helms/new_english/st5_dur3,434,40,OK,PONdiss,626.0,pen,st5_dur3,3.0,5.0,3.0,0.0,2.0,0.0,mono,,
263d1df1212401,acj047,2,1,71,https://d3uxfe7dw0hhy7.cloudfront.net/annie-helms/new_english/F3_dur4,411,50,OK,PONdiss,609.0,pen,F3_dur4,3.0,3.0,4.0,0.0,0.0,1.0,mono,,
263d1df1212401,acj047,2,1,72,https://d3uxfe7dw0hhy7.cloudfront.net/annie-helms/new_english/st3_dur3,434,35,OK,PONdiss,683.0,pen,st3_dur3,3.0,3.0,3.0,0.0,0.0,0.0,mono,,
263d1df1212401,acj047,2,1,73,https://d3uxfe7dw0hhy7.cloudfront.net/annie-helms/new_english/st5_dur5,389,50,OK,PONdiss,1217.0,pen,st5_dur5,3.0,5.0,5.0,0.0,2.0,2.0,mono,,
263d1df1212401,acj047,2,1,74,https://d3uxfe7dw0hhy7.cloudfront.net/annie-helms/new_english/F3_st1,418,40,OK,PONdiss,725.0,pen,F3_st1,3.0,1.0,3.0,0.0,-2.0,0.0,mono,,
263d1df1212401,acj047,2,2,1,https://d3uxfe7dw0hhy7.cloudfront.net/annie-helms/new_english/F3_st2,418,45,OK,PONdiss,1925.0,pen,F3_st2,3.0,2.0,3.0,0.0,-1.0,0.0,mono,,
263d1df1212401,acj047,2,2,2,https://d3uxfe7dw0hhy7.cloudfront.net/annie-helms/new_english/st3_dur5,389,40,OK,PONdiss,678.0,pen,st3_dur5,3.0,3.0,5.0,0.0,0.0,2.0,mono,,
263d1df1212401,acj047,2,2,3,https://d3uxfe7dw0hhy7.cloudfront.net/annie-helms/new_english/F4_st2,414,45,OK,PONdiss,800.0,pen,F4_st2,4.0,2.0,3.0,1.0,-1.0,0.0,mono,,
263d1df1212401,acj047,2,2,4,https://d3uxfe7dw0hhy7.cloudfront.net/annie-helms/new_english/F4_st4,414,35,OK,PONdiss,646.0,pen,F4_st4,4.0,4.0,3.0,1.0,1.0,0.0,mono,,
263d1df1212401,acj047,2,2,5,https://d3uxfe7dw0hhy7.cloudfront.net/annie-helms/new_english/F2_st4,438,30,OK,PONdiss,584.0,pen,F2_st4,2.0,4.0,3.0,-1.0,1.0,0.0,mono,,
263d1df1212401,acj047,2,2,6,https://d3uxfe7dw0hhy7.cloudfront.net/annie-helms/new_english/F5_st1,422,50,OK,PONdiss,2025.0,pen,F5_st1,5.0,1.0,3.0,2.0,-2.0,0.0,mono,,
263d1df1212401,acj047,2,2,8,https://d3uxfe7dw0hhy7.cloudfront.net/annie-helms/new_english/F4_dur4,407,40,OK,ponDISS,2472.0,ult,F4_dur4,4.0,3.0,4.0,1.0,0.0,1.0,mono,,
263d1df1212401,acj047,2,2,9,https://d3uxfe7dw0hhy7.cloudfront.net/annie-helms/new_english/F1_st5,425,35,OK,PONdiss,924.0,pen,F1_st5,1.0,5.0,3.0,-2.0,2.0,0.0,mono,,
263d1df1212401,acj047,2,2,10,https://d3uxfe7dw0hhy7.cloudfront.net/annie-helms/new_english/F3_dur2,456,55,OK,PONdiss,855.0,pen,F3_dur2,3.0,3.0,2.0,0.0,0.0,-1.0,mono,,
263d1df1212401,acj047,2,2,11,https://d3uxfe7dw0hhy7.cloudfront.net/annie-helms/new_english/st1_dur1,478,50,OK,PONdiss,1236.0,pen,st1_dur1,3.0,1.0,1.0,0.0,-2.0,-2.0,mono,,
263d1df1212401,acj047,2,2,12,https://d3uxfe7dw0hhy7.cloudfront.net/annie-helms/new_english/F4_st1,414,40,OK,PONdiss,856.0,pen,F4_st1,4.0,1.0,3.0,1.0,-2.0,0.0,mono,,
263d1df1212401,acj047,2,2,15,https://d3uxfe7dw0hhy7.cloudfront.net/annie-helms/new_english/F3_st1,418,40,OK,PONdiss,961.0,pen,F3_st1,3.0,1.0,3.0,0.0,-2.0,0.0,mono,,
263d1df1212401,acj047,2,2,16,https://d3uxfe7dw0hhy7.cloudfront.net/annie-helms/new_english/st3_dur3,434,45,OK,PONdiss,727.0,pen,st3_dur3,3.0,3.0,3.0,0.0,0.0,0.0,mono,,
263d1df1212401,acj047,2,2,17,https://d3uxfe7dw0hhy7.cloudfront.net/annie-helms/new_english/st1_dur3,434,30,OK,PONdiss,777.0,pen,st1_dur3,3.0,1.0,3.0,0.0,-2.0,0.0,mono,,
263d1df1212401,acj047,2,2,18,https://d3uxfe7dw0hhy7.cloudfront.net/annie-helms/new_english/F2_dur2,475,45,OK,PONdiss,1313.0,pen,F2_dur2,2.0,3.0,2.0,-1.0,0.0,-1.0,mono,,
263d1df1212401,acj047,2,2,19,https://d3uxfe7dw0hhy7.cloudfront.net/annie-helms/new_english/F2_dur3,453,50,OK,PONdiss,871.0,pen,F2_dur3,2.0,3.0,3.0,-1.0,0.0,0.0,mono,,
263d1df1212401,acj047,2,2,20,https://d3uxfe7dw0hhy7.cloudfront.net/annie-helms/new_english/F4_st3,414,45,OK,PONdiss,1238.0,pen,F4_st3,4.0,3.0,3.0,1.0,0.0,0.0,mono,,
263d1df1212401,acj047,2,2,21,https://d3uxfe7dw0hhy7.cloudfront.net/annie-helms/new_english/F1_dur5,396,45,OK,PONdiss,912.0,pen,F1_dur5,1.0,3.0,5.0,-2.0,0.0,2.0,mono,,
263d1df1212401,acj047,2,2,22,https://d3uxfe7dw0hhy7.cloudfront.net/annie-helms/new_english/F1_dur1,485,40,OK,PONdiss,907.0,pen,F1_dur1,1.0,3.0,1.0,-2.0,0.0,-2.0,mono,,
263d1df1212401,acj047,2,2,24,https://d3uxfe7dw0hhy7.cloudfront.net/annie-helms/new_english/F1_dur2,463,40,OK,PONdiss,782.0,pen,F1_dur2,1.0,3.0,2.0,-2.0,0.0,-1.0,mono,,
263d1df1212401,acj047,2,2,25,https://d3uxfe7dw0hhy7.cloudfront.net/annie-helms/new_english/st3_dur2,456,50,OK,PONdiss,636.0,pen,st3_dur2,3.0,3.0,2.0,0.0,0.0,-1.0,mono,,
263d1df1212401,acj047,2,2,26,https://d3uxfe7dw0hhy7.cloudfront.net/annie-helms/new_english/F5_st3,422,30,OK,PONdiss,1446.0,pen,F5_st3,5.0,3.0,3.0,2.0,0.0,0.0,mono,,
263d1df1212401,acj047,2,2,27,https://d3uxfe7dw0hhy7.cloudfront.net/annie-helms/new_english/st1_dur5,389,40,OK,ponDISS,1244.0,ult,st1_dur5,3.0,1.0,5.0,0.0,-2.0,2.0,mono,,
263d1df1212401,acj047,2,2,28,https://d3uxfe7dw0hhy7.cloudfront.net/annie-helms/new_english/F4_dur5,384,40,OK,ponDISS,2362.0,ult,F4_dur5,4.0,3.0,5.0,1.0,0.0,2.0,mono,,
263d1df1212401,acj047,2,2,29,https://d3uxfe7dw0hhy7.cloudfront.net/annie-helms/new_english/st2_dur1,478,35,OK,PONdiss,1529.0,pen,st2_dur1,3.0,2.0,1.0,0.0,-1.0,-2.0,mono,,
263d1df1212401,acj047,2,2,31,https://d3uxfe7dw0hhy7.cloudfront.net/annie-helms/new_english/F4_dur3,429,40,OK,PONdiss,1245.0,pen,F4_dur3,4.0,3.0,3.0,1.0,0.0,0.0,mono,,
263d1df1212401,acj047,2,2,32,https://d3uxfe7dw0hhy7.cloudfront.net/annie-helms/new_english/F2_st2,438,45,OK,PONdiss,846.0,pen,F2_st2,2.0,2.0,3.0,-1.0,-1.0,0.0,mono,,
263d1df1212401,acj047,2,2,34,https://d3uxfe7dw0hhy7.cloudfront.net/annie-helms/new_english/F3_dur5,389,35,OK,PONdiss,2454.0,pen,F3_dur5,3.0,3.0,5.0,0.0,0.0,2.0,mono,,
263d1df1212401,acj047,2,2,35,https://d3uxfe7dw0hhy7.cloudfront.net/annie-helms/new_english/F2_dur1,498,25,OK,PONdiss,1183.0,pen,F2_dur1,2.0,3.0,1.0,-1.0,0.0,-2.0,mono,,
263d1df1212401,acj047,2,2,36,https://d3uxfe7dw0hhy7.cloudfront.net/annie-helms/new_english/st2_dur4,411,40,OK,ponDISS,2330.0,ult,st2_dur4,3.0,2.0,4.0,0.0,-1.0,1.0,mono,,
263d1df1212401,acj047,2,2,37,https://d3uxfe7dw0hhy7.cloudfront.net/annie-helms/new_english/st4_dur5,389,40,OK,ponDISS,1725.0,ult,st4_dur5,3.0,4.0,5.0,0.0,1.0,2.0,mono,,
263d1df1212401,acj047,2,2,38,https://d3uxfe7dw0hhy7.cloudfront.net/annie-helms/new_english/F3_dur4,411,45,OK,ponDISS,1466.0,ult,F3_dur4,3.0,3.0,4.0,0.0,0.0,1.0,mono,,
263d1df1212401,acj047,2,2,39,https://d3uxfe7dw0hhy7.cloudfront.net/annie-helms/new_english/F3_dur3,434,30,OK,ponDISS,1022.0,ult,F3_dur3,3.0,3.0,3.0,0.0,0.0,0.0,mono,,
263d1df1212401,acj047,2,2,40,https://d3uxfe7dw0hhy7.cloudfront.net/annie-helms/new_english/st3_dur4,411,55,OK,PONdiss,1808.0,pen,st3_dur4,3.0,3.0,4.0,0.0,0.0,1.0,mono,,
263d1df1212401,acj047,2,2,41,https://d3uxfe7dw0hhy7.cloudfront.net/annie-helms/new_english/F1_st3,425,50,OK,PONdiss,1142.0,pen,F1_st3,1.0,3.0,3.0,-2.0,0.0,0.0,mono,,
263d1df1212401,acj047,2,2,42,https://d3uxfe7dw0hhy7.cloudfront.net/annie-helms/new_english/st5_dur2,456,50,OK,PONdiss,1707.0,pen,st5_dur2,3.0,5.0,2.0,0.0,2.0,-1.0,mono,,
263d1df1212401,acj047,2,2,43,https://d3uxfe7dw0hhy7.cloudfront.net/annie-helms/new_english/st3_dur1,478,45,OK,PONdiss,1019.0,pen,st3_dur1,3.0,3.0,1.0,0.0,0.0,-2.0,mono,,
263d1df1212401,acj047,2,2,44,https://d3uxfe7dw0hhy7.cloudfront.net/annie-helms/new_english/F2_st1,438,30,OK,PONdiss,858.0,pen,F2_st1,2.0,1.0,3.0,-1.0,-2.0,0.0,mono,,
263d1df1212401,acj047,2,2,45,https://d3uxfe7dw0hhy7.cloudfront.net/annie-helms/new_english/st5_dur1,478,35,OK,PONdiss,1058.0,pen,st5_dur1,3.0,5.0,1.0,0.0,2.0,-2.0,mono,,
263d1df1212401,acj047,2,2,46,https://d3uxfe7dw0hhy7.cloudfront.net/annie-helms/new_english/F4_dur1,474,50,OK,PONdiss,759.0,pen,F4_dur1,4.0,3.0,1.0,1.0,0.0,-2.0,mono,,
263d1df1212401,acj047,2,2,47,https://d3uxfe7dw0hhy7.cloudfront.net/annie-helms/new_english/F5_st4,422,45,OK,PONdiss,996.0,pen,F5_st4,5.0,4.0,3.0,2.0,1.0,0.0,mono,,
263d1df1212401,acj047,2,2,48,https://d3uxfe7dw0hhy7.cloudfront.net/annie-helms/new_english/F2_st3,438,45,OK,PONdiss,1915.0,pen,F2_st3,2.0,3.0,3.0,-1.0,0.0,0.0,mono,,
263d1df1212401,acj047,2,2,49,https://d3uxfe7dw0hhy7.cloudfront.net/annie-helms/new_english/F5_dur3,438,45,OK,PONdiss,1034.0,pen,F5_dur3,5.0,3.0,3.0,2.0,0.0,0.0,mono,,
263d1df1212401,acj047,2,2,51,https://d3uxfe7dw0hhy7.cloudfront.net/annie-helms/new_english/F1_dur3,441,40,OK,PONdiss,1027.0,pen,F1_dur3,1.0,3.0,3.0,-2.0,0.0,0.0,mono,,
263d1df1212401,acj047,2,2,52,https://d3uxfe7dw0hhy7.cloudfront.net/annie-helms/new_english/st5_dur5,389,45,OK,PONdiss,1579.0,pen,st5_dur5,3.0,5.0,5.0,0.0,2.0,2.0,mono,,
263d1df1212401,acj047,2,2,53,https://d3uxfe7dw0hhy7.cloudfront.net/annie-helms/new_english/F3_st5,418,45,OK,PONdiss,1461.0,pen,F3_st5,3.0,5.0,3.0,0.0,2.0,0.0,mono,,
263d1df1212401,acj047,2,2,54,https://d3uxfe7dw0hhy7.cloudfront.net/annie-helms/new_english/st5_dur4,411,45,OK,PONdiss,918.0,pen,st5_dur4,3.0,5.0,4.0,0.0,2.0,1.0,mono,,
263d1df1212401,acj047,2,2,55,https://d3uxfe7dw0hhy7.cloudfront.net/annie-helms/new_english/F3_dur1,478,30,OK,PONdiss,1053.0,pen,F3_dur1,3.0,3.0,1.0,0.0,0.0,-2.0,mono,,
263d1df1212401,acj047,2,2,56,https://d3uxfe7dw0hhy7.cloudfront.net/annie-helms/new_english/F1_st1,425,50,OK,PONdiss,822.0,pen,F1_st1,1.0,1.0,3.0,-2.0,-2.0,0.0,mono,,
263d1df1212401,acj047,2,2,57,https://d3uxfe7dw0hhy7.cloudfront.net/annie-helms/new_english/st1_dur2,456,45,OK,PONdiss,1242.0,pen,st1_dur2,3.0,1.0,2.0,0.0,-2.0,-1.0,mono,,
263d1df1212401,acj047,2,2,58,https://d3uxfe7dw0hhy7.cloudfront.net/annie-helms/new_english/st5_dur3,434,25,OK,ponDISS,2469.0,ult,st5_dur3,3.0,5.0,3.0,0.0,2.0,0.0,mono,,
263d1df1212401,acj047,2,2,59,https://d3uxfe7dw0hhy7.cloudfront.net/annie-helms/new_english/st2_dur3,434,30,OK,ponDISS,1839.0,ult,st2_dur3,3.0,2.0,3.0,0.0,-1.0,0.0,mono,,
263d1df1212401,acj047,2,2,60,https://d3uxfe7dw0hhy7.cloudfront.net/annie-helms/new_english/st2_dur2,456,45,OK,ponDISS,1042.0,ult,st2_dur2,3.0,2.0,2.0,0.0,-1.0,-1.0,mono,,
263d1df1212401,acj047,2,2,61,https://d3uxfe7dw0hhy7.cloudfront.net/annie-helms/new_english/F5_st2,422,40,OK,PONdiss,1957.0,pen,F5_st2,5.0,2.0,3.0,2.0,-1.0,0.0,mono,,
263d1df1212401,acj047,2,2,62,https://d3uxfe7dw0hhy7.cloudfront.net/annie-helms/new_english/st4_dur3,434,35,OK,ponDISS,1164.0,ult,st4_dur3,3.0,4.0,3.0,0.0,1.0,0.0,mono,,
263d1df1212401,acj047,2,2,63,https://d3uxfe7dw0hhy7.cloudfront.net/annie-helms/new_english/F1_dur4,418,45,OK,ponDISS,704.0,ult,F1_dur4,1.0,3.0,4.0,-2.0,0.0,1.0,mono,,
263d1df1212401,acj047,2,2,64,https://d3uxfe7dw0hhy7.cloudfront.net/annie-helms/new_english/F5_dur5,393,40,OK,ponDISS,1056.0,ult,F5_dur5,5.0,3.0,5.0,2.0,0.0,2.0,mono,,
263d1df1212401,acj047,2,2,65,https://d3uxfe7dw0hhy7.cloudfront.net/annie-helms/new_english/F5_dur4,415,45,OK,ponDISS,1046.0,ult,F5_dur4,5.0,3.0,4.0,2.0,0.0,1.0,mono,,
263d1df1212401,acj047,2,2,66,https://d3uxfe7dw0hhy7.cloudfront.net/annie-helms/new_english/F5_dur1,482,50,OK,ponDISS,753.0,ult,F5_dur1,5.0,3.0,1.0,2.0,0.0,-2.0,mono,,
263d1df1212401,acj047,2,2,67,https://d3uxfe7dw0hhy7.cloudfront.net/annie-helms/new_english/st4_dur1,478,40,OK,ponDISS,753.0,ult,st4_dur1,3.0,4.0,1.0,0.0,1.0,-2.0,mono,,
263d1df1212401,acj047,2,2,68,https://d3uxfe7dw0hhy7.cloudfront.net/annie-helms/new_english/F3_st4,418,60,OK,ponDISS,657.0,ult,F3_st4,3.0,4.0,3.0,0.0,1.0,0.0,mono,,
263d1df1212401,acj047,2,2,69,https://d3uxfe7dw0hhy7.cloudfront.net/annie-helms/new_english/F1_st2,425,40,OK,ponDISS,1477.0,ult,F1_st2,1.0,2.0,3.0,-2.0,-1.0,0.0,mono,,
263d1df1212401,acj047,2,2,70,https://d3uxfe7dw0hhy7.cloudfront.net/annie-helms/new_english/F4_dur2,451,35,OK,ponDISS,781.0,ult,F4_dur2,4.0,3.0,2.0,1.0,0.0,-1.0,mono,,
263d1df1212401,acj047,2,2,71,https://d3uxfe7dw0hhy7.cloudfront.net/annie-helms/new_english/F4_st5,414,55,OK,ponDISS,838.0,ult,F4_st5,4.0,5.0,3.0,1.0,2.0,0.0,mono,,
263d1df1212401,acj047,2,2,72,https://d3uxfe7dw0hhy7.cloudfront.net/annie-helms/new_english/F5_dur2,460,45,OK,ponDISS,647.0,ult,F5_dur2,5.0,3.0,2.0,2.0,0.0,-1.0,mono,,
263d1df1212401,acj047,2,2,73,https://d3uxfe7dw0hhy7.cloudfront.net/annie-helms/new_english/F2_dur4,431,45,OK,ponDISS,718.0,ult,F2_dur4,2.0,3.0,4.0,-1.0,0.0,1.0,mono,,
263d1df1212401,acj047,2,2,74,https://d3uxfe7dw0hhy7.cloudfront.net/annie-helms/new_english/F2_st5,438,35,OK,ponDISS,662.0,ult,F2_st5,2.0,5.0,3.0,-1.0,2.0,0.0,mono,,
263d3388f4f07e,ers160,2,1,0,https://d3uxfe7dw0hhy7.cloudfront.net/annie-helms/new_english/st4_dur3,434,160,OK,PONdiss,1972.0,pen,st4_dur3,3.0,4.0,3.0,0.0,1.0,0.0,mono,,
263d3388f4f07e,ers160,2,1,1,https://d3uxfe7dw0hhy7.cloudfront.net/annie-helms/new_english/st2_dur2,456,130,OK,PONdiss,949.0,pen,st2_dur2,3.0,2.0,2.0,0.0,-1.0,-1.0,mono,,
263d3388f4f07e,ers160,2,1,2,https://d3uxfe7dw0hhy7.cloudfront.net/annie-helms/new_english/st1_dur4,411,105,OK,PONdiss,698.0,pen,st1_dur4,3.0,1.0,4.0,0.0,-2.0,1.0,mono,,
263d3388f4f07e,ers160,2,1,3,https://d3uxfe7dw0hhy7.cloudfront.net/annie-helms/new_english/F3_dur2,456,115,OK,PONdiss,662.0,pen,F3_dur2,3.0,3.0,2.0,0.0,0.0,-1.0,mono,,
263d3388f4f07e,ers160,2,1,4,https://d3uxfe7dw0hhy7.cloudfront.net/annie-helms/new_english/F3_st3,418,110,OK,PONdiss,567.0,pen,F3_st3,3.0,3.0,3.0,0.0,0.0,0.0,mono,,
263d3388f4f07e,ers160,2,1,5,https://d3uxfe7dw0hhy7.cloudfront.net/annie-helms/new_english/F5_st5,422,105,OK,PONdiss,859.0,pen,F5_st5,5.0,5.0,3.0,2.0,2.0,0.0,mono,,
263d3388f4f07e,ers160,2,1,6,https://d3uxfe7dw0hhy7.cloudfront.net/annie-helms/new_english/F5_st2,422,130,OK,PONdiss,627.0,pen,F5_st2,5.0,2.0,3.0,2.0,-1.0,0.0,mono,,
263d3388f4f07e,ers160,2,1,7,https://d3uxfe7dw0hhy7.cloudfront.net/annie-helms/new_english/st4_dur4,411,110,OK,PONdiss,639.0,pen,st4_dur4,3.0,4.0,4.0,0.0,1.0,1.0,mono,,
263d3388f4f07e,ers160,2,1,8,https://d3uxfe7dw0hhy7.cloudfront.net/annie-helms/new_english/F5_st4,422,90,OK,PONdiss,813.0,pen,F5_st4,5.0,4.0,3.0,2.0,1.0,0.0,mono,,
263d3388f4f07e,ers160,2,1,9,https://d3uxfe7dw0hhy7.cloudfront.net/annie-helms/new_english/st3_dur2,456,90,OK,PONdiss,690.0,pen,st3_dur2,3.0,3.0,2.0,0.0,0.0,-1.0,mono,,
263d3388f4f07e,ers160,2,1,10,https://d3uxfe7dw0hhy7.cloudfront.net/annie-helms/new_english/F2_dur2,475,95,OK,PONdiss,558.0,pen,F2_dur2,2.0,3.0,2.0,-1.0,0.0,-1.0,mono,,
263d3388f4f07e,ers160,2,1,11,https://d3uxfe7dw0hhy7.cloudfront.net/annie-helms/new_english/F4_dur1,474,110,OK,PONdiss,755.0,pen,F4_dur1,4.0,3.0,1.0,1.0,0.0,-2.0,mono,,
263d3388f4f07e,ers160,2,1,12,https://d3uxfe7dw0hhy7.cloudfront.net/annie-helms/new_english/F4_st1,414,95,OK,PONdiss,1019.0,pen,F4_st1,4.0,1.0,3.0,1.0,-2.0,0.0,mono,,
263d3388f4f07e,ers160,2,1,13,https://d3uxfe7dw0hhy7.cloudfront.net/annie-helms/new_english/F2_st4,438,125,OK,PONdiss,797.0,pen,F2_st4,2.0,4.0,3.0,-1.0,1.0,0.0,mono,,
263d3388f4f07e,ers160,2,1,14,https://d3uxfe7dw0hhy7.cloudfront.net/annie-helms/new_english/F5_dur3,438,130,OK,PONdiss,915.0,pen,F5_dur3,5.0,3.0,3.0,2.0,0.0,0.0,mono,,
263d3388f4f07e,ers160,2,1,15,https://d3uxfe7dw0hhy7.cloudfront.net/annie-helms/new_english/F2_dur4,431,115,OK,PONdiss,1179.0,pen,F2_dur4,2.0,3.0,4.0,-1.0,0.0,1.0,mono,,
263d3388f4f07e,ers160,2,1,16,https://d3uxfe7dw0hhy7.cloudfront.net/annie-helms/new_english/F4_st2,414,105,OK,PONdiss,934.0,pen,F4_st2,4.0,2.0,3.0,1.0,-1.0,0.0,mono,,
263d3388f4f07e,ers160,2,1,17,https://d3uxfe7dw0hhy7.cloudfront.net/annie-helms/new_english/st5_dur4,411,100,OK,PONdiss,732.0,pen,st5_dur4,3.0,5.0,4.0,0.0,2.0,1.0,mono,,
263d3388f4f07e,ers160,2,1,18,https://d3uxfe7dw0hhy7.cloudfront.net/annie-helms/new_english/F1_dur3,441,115,OK,PONdiss,571.0,pen,F1_dur3,1.0,3.0,3.0,-2.0,0.0,0.0,mono,,
263d3388f4f07e,ers160,2,1,19,https://d3uxfe7dw0hhy7.cloudfront.net/annie-helms/new_english/F3_st5,418,140,OK,PONdiss,657.0,pen,F3_st5,3.0,5.0,3.0,0.0,2.0,0.0,mono,,
263d3388f4f07e,ers160,2,1,20,https://d3uxfe7dw0hhy7.cloudfront.net/annie-helms/new_english/st1_dur5,389,125,OK,PONdiss,759.0,pen,st1_dur5,3.0,1.0,5.0,0.0,-2.0,2.0,mono,,
263d3388f4f07e,ers160,2,1,21,https://d3uxfe7dw0hhy7.cloudfront.net/annie-helms/new_english/F1_dur2,463,95,OK,PONdiss,748.0,pen,F1_dur2,1.0,3.0,2.0,-2.0,0.0,-1.0,mono,,
263d3388f4f07e,ers160,2,1,22,https://d3uxfe7dw0hhy7.cloudfront.net/annie-helms/new_english/st5_dur5,389,100,OK,PONdiss,1532.0,pen,st5_dur5,3.0,5.0,5.0,0.0,2.0,2.0,mono,,
263d3388f4f07e,ers160,2,1,23,https://d3uxfe7dw0hhy7.cloudfront.net/annie-helms/new_english/F4_st5,414,125,OK,PONdiss,729.0,pen,F4_st5,4.0,5.0,3.0,1.0,2.0,0.0,mono,,
263d3388f4f07e,ers160,2,1,24,https://d3uxfe7dw0hhy7.cloudfront.net/annie-helms/new_english/F5_dur2,460,75,OK,PONdiss,846.0,pen,F5_dur2,5.0,3.0,2.0,2.0,0.0,-1.0,mono,,
263d3388f4f07e,ers160,2,1,25,https://d3uxfe7dw0hhy7.cloudfront.net/annie-helms/new_english/F5_st3,422,95,OK,PONdiss,946.0,pen,F5_st3,5.0,3.0,3.0,2.0,0.0,0.0,mono,,
263d3388f4f07e,ers160,2,1,26,https://d3uxfe7dw0hhy7.cloudfront.net/annie-helms/new_english/F1_st4,425,95,OK,PONdiss,815.0,pen,F1_st4,1.0,4.0,3.0,-2.0,1.0,0.0,mono,,
263d3388f4f07e,ers160,2,1,27,https://d3uxfe7dw0hhy7.cloudfront.net/annie-helms/new_english/F4_dur4,407,100,OK,PONdiss,655.0,pen,F4_dur4,4.0,3.0,4.0,1.0,0.0,1.0,mono,,
263d3388f4f07e,ers160,2,1,28,https://d3uxfe7dw0hhy7.cloudfront.net/annie-helms/new_english/st3_dur3,434,130,OK,PONdiss,733.0,pen,st3_dur3,3.0,3.0,3.0,0.0,0.0,0.0,mono,,
263d3388f4f07e,ers160,2,1,29,https://d3uxfe7dw0hhy7.cloudfront.net/annie-helms/new_english/st2_dur3,434,105,OK,PONdiss,767.0,pen,st2_dur3,3.0,2.0,3.0,0.0,-1.0,0.0,mono,,
263d3388f4f07e,ers160,2,1,30,https://d3uxfe7dw0hhy7.cloudfront.net/annie-helms/new_english/F3_st4,418,105,OK,PONdiss,714.0,pen,F3_st4,3.0,4.0,3.0,0.0,1.0,0.0,mono,,
263d3388f4f07e,ers160,2,1,31,https://d3uxfe7dw0hhy7.cloudfront.net/annie-helms/new_english/st3_dur5,389,100,OK,PONdiss,1096.0,pen,st3_dur5,3.0,3.0,5.0,0.0,0.0,2.0,mono,,
263d3388f4f07e,ers160,2,1,32,https://d3uxfe7dw0hhy7.cloudfront.net/annie-helms/new_english/st5_dur3,434,105,OK,PONdiss,776.0,pen,st5_dur3,3.0,5.0,3.0,0.0,2.0,0.0,mono,,
263d3388f4f07e,ers160,2,1,33,https://d3uxfe7dw0hhy7.cloudfront.net/annie-helms/new_english/F1_st2,425,105,OK,PONdiss,1787.0,pen,F1_st2,1.0,2.0,3.0,-2.0,-1.0,0.0,mono,,
263d3388f4f07e,ers160,2,1,34,https://d3uxfe7dw0hhy7.cloudfront.net/annie-helms/new_english/F2_st2,438,110,OK,PONdiss,820.0,pen,F2_st2,2.0,2.0,3.0,-1.0,-1.0,0.0,mono,,
263d3388f4f07e,ers160,2,1,35,https://d3uxfe7dw0hhy7.cloudfront.net/annie-helms/new_english/F1_dur5,396,70,OK,PONdiss,923.0,pen,F1_dur5,1.0,3.0,5.0,-2.0,0.0,2.0,mono,,
263d3388f4f07e,ers160,2,1,36,https://d3uxfe7dw0hhy7.cloudfront.net/annie-helms/new_english/F5_st1,422,130,OK,PONdiss,935.0,pen,F5_st1,5.0,1.0,3.0,2.0,-2.0,0.0,mono,,
263d3388f4f07e,ers160,2,1,37,https://d3uxfe7dw0hhy7.cloudfront.net/annie-helms/new_english/F5_dur1,482,110,OK,PONdiss,828.0,pen,F5_dur1,5.0,3.0,1.0,2.0,0.0,-2.0,mono,,
263d3388f4f07e,ers160,2,1,38,https://d3uxfe7dw0hhy7.cloudfront.net/annie-helms/new_english/F2_st3,438,110,OK,PONdiss,678.0,pen,F2_st3,2.0,3.0,3.0,-1.0,0.0,0.0,mono,,
263d3388f4f07e,ers160,2,1,39,https://d3uxfe7dw0hhy7.cloudfront.net/annie-helms/new_english/st3_dur4,411,105,OK,PONdiss,703.0,pen,st3_dur4,3.0,3.0,4.0,0.0,0.0,1.0,mono,,
263d3388f4f07e,ers160,2,1,40,https://d3uxfe7dw0hhy7.cloudfront.net/annie-helms/new_english/F2_st1,438,65,OK,PONdiss,721.0,pen,F2_st1,2.0,1.0,3.0,-1.0,-2.0,0.0,mono,,
263d3388f4f07e,ers160,2,1,41,https://d3uxfe7dw0hhy7.cloudfront.net/annie-helms/new_english/F1_st5,425,95,OK,PONdiss,466.0,pen,F1_st5,1.0,5.0,3.0,-2.0,2.0,0.0,mono,,
263d3388f4f07e,ers160,2,1,42,https://d3uxfe7dw0hhy7.cloudfront.net/annie-helms/new_english/st3_dur1,478,120,OK,PONdiss,699.0,pen,st3_dur1,3.0,3.0,1.0,0.0,0.0,-2.0,mono,,
263d3388f4f07e,ers160,2,1,43,https://d3uxfe7dw0hhy7.cloudfront.net/annie-helms/new_english/st2_dur5,389,95,OK,PONdiss,494.0,pen,st2_dur5,3.0,2.0,5.0,0.0,-1.0,2.0,mono,,
263d3388f4f07e,ers160,2,1,44,https://d3uxfe7dw0hhy7.cloudfront.net/annie-helms/new_english/st4_dur1,478,90,OK,PONdiss,581.0,pen,st4_dur1,3.0,4.0,1.0,0.0,1.0,-2.0,mono,,
263d3388f4f07e,ers160,2,1,45,https://d3uxfe7dw0hhy7.cloudfront.net/annie-helms/new_english/st1_dur1,478,100,OK,PONdiss,651.0,pen,st1_dur1,3.0,1.0,1.0,0.0,-2.0,-2.0,mono,,
263d3388f4f07e,ers160,2,1,46,https://d3uxfe7dw0hhy7.cloudfront.net/annie-helms/new_english/F5_dur4,415,120,OK,PONdiss,484.0,pen,F5_dur4,5.0,3.0,4.0,2.0,0.0,1.0,mono,,
263d3388f4f07e,ers160,2,1,47,https://d3uxfe7dw0hhy7.cloudfront.net/annie-helms/new_english/F1_dur1,485,115,OK,PONdiss,676.0,pen,F1_dur1,1.0,3.0,1.0,-2.0,0.0,-2.0,mono,,
263d3388f4f07e,ers160,2,1,48,https://d3uxfe7dw0hhy7.cloudfront.net/annie-helms/new_english/F3_dur3,434,100,OK,PONdiss,634.0,pen,F3_dur3,3.0,3.0,3.0,0.0,0.0,0.0,mono,,
263d3388f4f07e,ers160,2,1,49,https://d3uxfe7dw0hhy7.cloudfront.net/annie-helms/new_english/st2_dur1,478,115,OK,PONdiss,698.0,pen,st2_dur1,3.0,2.0,1.0,0.0,-1.0,-2.0,mono,,
263d3388f4f07e,ers160,2,1,50,https://d3uxfe7dw0hhy7.cloudfront.net/annie-helms/new_english/F3_dur5,389,115,OK,PONdiss,552.0,pen,F3_dur5,3.0,3.0,5.0,0.0,0.0,2.0,mono,,
263d3388f4f07e,ers160,2,1,52,https://d3uxfe7dw0hhy7.cloudfront.net/annie-helms/new_english/F1_st1,425,115,OK,PONdiss,762.0,pen,F1_st1,1.0,1.0,3.0,-2.0,-2.0,0.0,mono,,
263d3388f4f07e,ers160,2,1,53,https://d3uxfe7dw0hhy7.cloudfront.net/annie-helms/new_english/F2_dur5,408,125,OK,PONdiss,711.0,pen,F2_dur5,2.0,3.0,5.0,-1.0,0.0,2.0,mono,,
263d3388f4f07e,ers160,2,1,54,https://d3uxfe7dw0hhy7.cloudfront.net/annie-helms/new_english/F1_st3,425,115,OK,PONdiss,687.0,pen,F1_st3,1.0,3.0,3.0,-2.0,0.0,0.0,mono,,
263d3388f4f07e,ers160,2,1,55,https://d3uxfe7dw0hhy7.cloudfront.net/annie-helms/new_english/F3_dur1,478,110,OK,PONdiss,950.0,pen,F3_dur1,3.0,3.0,1.0,0.0,0.0,-2.0,mono,,
263d3388f4f07e,ers160,2,1,56,https://d3uxfe7dw0hhy7.cloudfront.net/annie-helms/new_english/st4_dur2,456,110,OK,PONdiss,1278.0,pen,st4_dur2,3.0,4.0,2.0,0.0,1.0,-1.0,mono,,
263d3388f4f07e,ers160,2,1,57,https://d3uxfe7dw0hhy7.cloudfront.net/annie-helms/new_english/F3_st1,418,85,OK,PONdiss,1010.0,pen,F3_st1,3.0,1.0,3.0,0.0,-2.0,0.0,mono,,
263d3388f4f07e,ers160,2,1,58,https://d3uxfe7dw0hhy7.cloudfront.net/annie-helms/new_english/F4_dur3,429,80,OK,PONdiss,613.0,pen,F4_dur3,4.0,3.0,3.0,1.0,0.0,0.0,mono,,
263d3388f4f07e,ers160,2,1,59,https://d3uxfe7dw0hhy7.cloudfront.net/annie-helms/new_english/F3_dur4,411,70,OK,PONdiss,1483.0,pen,F3_dur4,3.0,3.0,4.0,0.0,0.0,1.0,mono,,
263d3388f4f07e,ers160,2,1,60,https://d3uxfe7dw0hhy7.cloudfront.net/annie-helms/new_english/st5_dur1,478,95,OK,ponDISS,1252.0,ult,st5_dur1,3.0,5.0,1.0,0.0,2.0,-2.0,mono,,
263d3388f4f07e,ers160,2,1,61,https://d3uxfe7dw0hhy7.cloudfront.net/annie-helms/new_english/F4_st3,414,145,OK,PONdiss,782.0,pen,F4_st3,4.0,3.0,3.0,1.0,0.0,0.0,mono,,
263d3388f4f07e,ers160,2,1,62,https://d3uxfe7dw0hhy7.cloudfront.net/annie-helms/new_english/F1_dur4,418,125,OK,ponDISS,874.0,ult,F1_dur4,1.0,3.0,4.0,-2.0,0.0,1.0,mono,,
263d3388f4f07e,ers160,2,1,63,https://d3uxfe7dw0hhy7.cloudfront.net/annie-helms/new_english/st1_dur3,434,95,OK,PONdiss,678.0,pen,st1_dur3,3.0,1.0,3.0,0.0,-2.0,0.0,mono,,
263d3388f4f07e,ers160,2,1,64,https://d3uxfe7dw0hhy7.cloudfront.net/annie-helms/new_english/F5_dur5,393,115,OK,ponDISS,764.0,ult,F5_dur5,5.0,3.0,5.0,2.0,0.0,2.0,mono,,
263d3388f4f07e,ers160,2,1,65,https://d3uxfe7dw0hhy7.cloudfront.net/annie-helms/new_english/F4_dur2,451,115,OK,PONdiss,616.0,pen,F4_dur2,4.0,3.0,2.0,1.0,0.0,-1.0,mono,,
263d3388f4f07e,ers160,2,1,66,https://d3uxfe7dw0hhy7.cloudfront.net/annie-helms/new_english/F2_dur1,498,120,OK,PONdiss,799.0,pen,F2_dur1,2.0,3.0,1.0,-1.0,0.0,-2.0,mono,,
263d3388f4f07e,ers160,2,1,67,https://d3uxfe7dw0hhy7.cloudfront.net/annie-helms/new_english/st5_dur2,456,120,OK,PONdiss,1130.0,pen,st5_dur2,3.0,5.0,2.0,0.0,2.0,-1.0,mono,,
263d3388f4f07e,ers160,2,1,68,https://d3uxfe7dw0hhy7.cloudfront.net/annie-helms/new_english/st2_dur4,411,120,OK,ponDISS,1439.0,ult,st2_dur4,3.0,2.0,4.0,0.0,-1.0,1.0,mono,,
263d3388f4f07e,ers160,2,1,69,https://d3uxfe7dw0hhy7.cloudfront.net/annie-helms/new_english/F2_st5,438,165,OK,PONdiss,713.0,pen,F2_st5,2.0,5.0,3.0,-1.0,2.0,0.0,mono,,
263d3388f4f07e,ers160,2,1,70,https://d3uxfe7dw0hhy7.cloudfront.net/annie-helms/new_english/F2_dur3,453,140,OK,PONdiss,880.0,pen,F2_dur3,2.0,3.0,3.0,-1.0,0.0,0.0,mono,,
263d3388f4f07e,ers160,2,1,71,https://d3uxfe7dw0hhy7.cloudfront.net/annie-helms/new_english/F4_st4,414,145,OK,ponDISS,909.0,ult,F4_st4,4.0,4.0,3.0,1.0,1.0,0.0,mono,,
263d3388f4f07e,ers160,2,1,72,https://d3uxfe7dw0hhy7.cloudfront.net/annie-helms/new_english/F3_st2,418,130,OK,PONdiss,1228.0,pen,F3_st2,3.0,2.0,3.0,0.0,-1.0,0.0,mono,,
263d3388f4f07e,ers160,2,1,73,https://d3uxfe7dw0hhy7.cloudfront.net/annie-helms/new_english/F4_dur5,384,160,OK,PONdiss,1006.0,pen,F4_dur5,4.0,3.0,5.0,1.0,0.0,2.0,mono,,
263d3388f4f07e,ers160,2,1,74,https://d3uxfe7dw0hhy7.cloudfront.net/annie-helms/new_english/st1_dur2,456,110,OK,PONdiss,699.0,pen,st1_dur2,3.0,1.0,2.0,0.0,-2.0,-1.0,mono,,
263d3388f4f07e,ers160,2,2,1,https://d3uxfe7dw0hhy7.cloudfront.net/annie-helms/new_english/F5_dur2,460,100,OK,PONdiss,715.0,pen,F5_dur2,5.0,3.0,2.0,2.0,0.0,-1.0,mono,,
263d3388f4f07e,ers160,2,2,2,https://d3uxfe7dw0hhy7.cloudfront.net/annie-helms/new_english/st4_dur5,389,110,OK,PONdiss,650.0,pen,st4_dur5,3.0,4.0,5.0,0.0,1.0,2.0,mono,,
263d3388f4f07e,ers160,2,2,3,https://d3uxfe7dw0hhy7.cloudfront.net/annie-helms/new_english/F2_dur4,431,105,OK,PONdiss,717.0,pen,F2_dur4,2.0,3.0,4.0,-1.0,0.0,1.0,mono,,
263d3388f4f07e,ers160,2,2,4,https://d3uxfe7dw0hhy7.cloudfront.net/annie-helms/new_english/F1_st3,425,115,OK,PONdiss,912.0,pen,F1_st3,1.0,3.0,3.0,-2.0,0.0,0.0,mono,,
263d3388f4f07e,ers160,2,2,5,https://d3uxfe7dw0hhy7.cloudfront.net/annie-helms/new_english/st3_dur3,434,105,OK,PONdiss,1362.0,pen,st3_dur3,3.0,3.0,3.0,0.0,0.0,0.0,mono,,
263d3388f4f07e,ers160,2,2,6,https://d3uxfe7dw0hhy7.cloudfront.net/annie-helms/new_english/st5_dur5,389,160,OK,ponDISS,700.0,ult,st5_dur5,3.0,5.0,5.0,0.0,2.0,2.0,mono,,
263d3388f4f07e,ers160,2,2,7,https://d3uxfe7dw0hhy7.cloudfront.net/annie-helms/new_english/F2_dur5,408,150,OK,PONdiss,1486.0,pen,F2_dur5,2.0,3.0,5.0,-1.0,0.0,2.0,mono,,
263d3388f4f07e,ers160,2,2,8,https://d3uxfe7dw0hhy7.cloudfront.net/annie-helms/new_english/st2_dur1,478,120,OK,PONdiss,662.0,pen,st2_dur1,3.0,2.0,1.0,0.0,-1.0,-2.0,mono,,
263d3388f4f07e,ers160,2,2,9,https://d3uxfe7dw0hhy7.cloudfront.net/annie-helms/new_english/st1_dur3,434,120,OK,ponDISS,807.0,ult,st1_dur3,3.0,1.0,3.0,0.0,-2.0,0.0,mono,,
263d3388f4f07e,ers160,2,2,10,https://d3uxfe7dw0hhy7.cloudfront.net/annie-helms/new_english/F5_st4,422,110,OK,PONdiss,738.0,pen,F5_st4,5.0,4.0,3.0,2.0,1.0,0.0,mono,,
263d3388f4f07e,ers160,2,2,11,https://d3uxfe7dw0hhy7.cloudfront.net/annie-helms/new_english/F3_st3,418,115,OK,PONdiss,795.0,pen,F3_st3,3.0,3.0,3.0,0.0,0.0,0.0,mono,,
263d3388f4f07e,ers160,2,2,12,https://d3uxfe7dw0hhy7.cloudfront.net/annie-helms/new_english/F4_st5,414,120,OK,PONdiss,1075.0,pen,F4_st5,4.0,5.0,3.0,1.0,2.0,0.0,mono,,
263d3388f4f07e,ers160,2,2,13,https://d3uxfe7dw0hhy7.cloudfront.net/annie-helms/new_english/F5_dur3,438,85,OK,PONdiss,766.0,pen,F5_dur3,5.0,3.0,3.0,2.0,0.0,0.0,mono,,
263d3388f4f07e,ers160,2,2,14,https://d3uxfe7dw0hhy7.cloudfront.net/annie-helms/new_english/F4_dur2,451,115,OK,PONdiss,915.0,pen,F4_dur2,4.0,3.0,2.0,1.0,0.0,-1.0,mono,,
263d3388f4f07e,ers160,2,2,15,https://d3uxfe7dw0hhy7.cloudfront.net/annie-helms/new_english/F5_dur4,415,140,OK,PONdiss,807.0,pen,F5_dur4,5.0,3.0,4.0,2.0,0.0,1.0,mono,,
263d3388f4f07e,ers160,2,2,16,https://d3uxfe7dw0hhy7.cloudfront.net/annie-helms/new_english/F5_st2,422,125,OK,PONdiss,891.0,pen,F5_st2,5.0,2.0,3.0,2.0,-1.0,0.0,mono,,
263d3388f4f07e,ers160,2,2,17,https://d3uxfe7dw0hhy7.cloudfront.net/annie-helms/new_english/st2_dur4,411,105,OK,ponDISS,1705.0,ult,st2_dur4,3.0,2.0,4.0,0.0,-1.0,1.0,mono,,
263d3388f4f07e,ers160,2,2,18,https://d3uxfe7dw0hhy7.cloudfront.net/annie-helms/new_english/F5_dur5,393,240,OK,PONdiss,801.0,pen,F5_dur5,5.0,3.0,5.0,2.0,0.0,2.0,mono,,
263d3388f4f07e,ers160,2,2,19,https://d3uxfe7dw0hhy7.cloudfront.net/annie-helms/new_english/st5_dur1,478,115,OK,PONdiss,656.0,pen,st5_dur1,3.0,5.0,1.0,0.0,2.0,-2.0,mono,,
263d3388f4f07e,ers160,2,2,20,https://d3uxfe7dw0hhy7.cloudfront.net/annie-helms/new_english/F1_st1,425,120,OK,PONdiss,872.0,pen,F1_st1,1.0,1.0,3.0,-2.0,-2.0,0.0,mono,,
263d3388f4f07e,ers160,2,2,21,https://d3uxfe7dw0hhy7.cloudfront.net/annie-helms/new_english/F2_st3,438,110,OK,PONdiss,613.0,pen,F2_st3,2.0,3.0,3.0,-1.0,0.0,0.0,mono,,
263d3388f4f07e,ers160,2,2,22,https://d3uxfe7dw0hhy7.cloudfront.net/annie-helms/new_english/F3_dur3,434,130,OK,PONdiss,776.0,pen,F3_dur3,3.0,3.0,3.0,0.0,0.0,0.0,mono,,
263d3388f4f07e,ers160,2,2,23,https://d3uxfe7dw0hhy7.cloudfront.net/annie-helms/new_english/st1_dur5,389,100,OK,ponDISS,642.0,ult,st1_dur5,3.0,1.0,5.0,0.0,-2.0,2.0,mono,,
263d3388f4f07e,ers160,2,2,24,https://d3uxfe7dw0hhy7.cloudfront.net/annie-helms/new_english/st5_dur4,411,105,OK,ponDISS,1290.0,ult,st5_dur4,3.0,5.0,4.0,0.0,2.0,1.0,mono,,
263d3388f4f07e,ers160,2,2,25,https://d3uxfe7dw0hhy7.cloudfront.net/annie-helms/new_english/st2_dur5,389,160,OK,ponDISS,913.0,ult,st2_dur5,3.0,2.0,5.0,0.0,-1.0,2.0,mono,,
263d3388f4f07e,ers160,2,2,26,https://d3uxfe7dw0hhy7.cloudfront.net/annie-helms/new_english/F3_st4,418,100,OK,ponDISS,972.0,ult,F3_st4,3.0,4.0,3.0,0.0,1.0,0.0,mono,,
263d3388f4f07e,ers160,2,2,27,https://d3uxfe7dw0hhy7.cloudfront.net/annie-helms/new_english/F2_st2,438,145,OK,PONdiss,639.0,pen,F2_st2,2.0,2.0,3.0,-1.0,-1.0,0.0,mono,,
263d3388f4f07e,ers160,2,2,28,https://d3uxfe7dw0hhy7.cloudfront.net/annie-helms/new_english/st2_dur2,456,105,OK,PONdiss,788.0,pen,st2_dur2,3.0,2.0,2.0,0.0,-1.0,-1.0,mono,,
263d3388f4f07e,ers160,2,2,29,https://d3uxfe7dw0hhy7.cloudfront.net/annie-helms/new_english/F4_st1,414,130,OK,PONdiss,1035.0,pen,F4_st1,4.0,1.0,3.0,1.0,-2.0,0.0,mono,,
263d3388f4f07e,ers160,2,2,30,https://d3uxfe7dw0hhy7.cloudfront.net/annie-helms/new_english/F4_dur3,429,90,OK,PONdiss,877.0,pen,F4_dur3,4.0,3.0,3.0,1.0,0.0,0.0,mono,,
263d3388f4f07e,ers160,2,2,31,https://d3uxfe7dw0hhy7.cloudfront.net/annie-helms/new_english/F1_dur4,418,125,OK,ponDISS,964.0,ult,F1_dur4,1.0,3.0,4.0,-2.0,0.0,1.0,mono,,
263d3388f4f07e,ers160,2,2,32,https://d3uxfe7dw0hhy7.cloudfront.net/annie-helms/new_english/F4_dur1,474,145,OK,PONdiss,1402.0,pen,F4_dur1,4.0,3.0,1.0,1.0,0.0,-2.0,mono,,
263d3388f4f07e,ers160,2,2,33,https://d3uxfe7dw0hhy7.cloudfront.net/annie-helms/new_english/st1_dur4,411,90,OK,ponDISS,768.0,ult,st1_dur4,3.0,1.0,4.0,0.0,-2.0,1.0,mono,,
263d3388f4f07e,ers160,2,2,34,https://d3uxfe7dw0hhy7.cloudfront.net/annie-helms/new_english/st2_dur3,434,120,OK,ponDISS,1625.0,ult,st2_dur3,3.0,2.0,3.0,0.0,-1.0,0.0,mono,,
263d3388f4f07e,ers160,2,2,35,https://d3uxfe7dw0hhy7.cloudfront.net/annie-helms/new_english/F4_st4,414,135,OK,PONdiss,1042.0,pen,F4_st4,4.0,4.0,3.0,1.0,1.0,0.0,mono,,
263d3388f4f07e,ers160,2,2,36,https://d3uxfe7dw0hhy7.cloudfront.net/annie-helms/new_english/F4_st2,414,105,OK,PONdiss,683.0,pen,F4_st2,4.0,2.0,3.0,1.0,-1.0,0.0,mono,,
263d3388f4f07e,ers160,2,2,37,https://d3uxfe7dw0hhy7.cloudfront.net/annie-helms/new_english/st4_dur2,456,155,OK,PONdiss,1366.0,pen,st4_dur2,3.0,4.0,2.0,0.0,1.0,-1.0,mono,,
263d3388f4f07e,ers160,2,2,38,https://d3uxfe7dw0hhy7.cloudfront.net/annie-helms/new_english/F3_st1,418,180,OK,PONdiss,1001.0,pen,F3_st1,3.0,1.0,3.0,0.0,-2.0,0.0,mono,,
263d3388f4f07e,ers160,2,2,39,https://d3uxfe7dw0hhy7.cloudfront.net/annie-helms/new_english/F2_dur2,475,130,OK,PONdiss,930.0,pen,F2_dur2,2.0,3.0,2.0,-1.0,0.0,-1.0,mono,,
263d3388f4f07e,ers160,2,2,40,https://d3uxfe7dw0hhy7.cloudfront.net/annie-helms/new_english/F1_st2,425,100,OK,PONdiss,1658.0,pen,F1_st2,1.0,2.0,3.0,-2.0,-1.0,0.0,mono,,
263d3388f4f07e,ers160,2,2,41,https://d3uxfe7dw0hhy7.cloudfront.net/annie-helms/new_english/F5_st5,422,105,OK,ponDISS,1321.0,ult,F5_st5,5.0,5.0,3.0,2.0,2.0,0.0,mono,,
263d3388f4f07e,ers160,2,2,42,https://d3uxfe7dw0hhy7.cloudfront.net/annie-helms/new_english/F3_dur1,478,155,OK,PONdiss,947.0,pen,F3_dur1,3.0,3.0,1.0,0.0,0.0,-2.0,mono,,
263d3388f4f07e,ers160,2,2,43,https://d3uxfe7dw0hhy7.cloudfront.net/annie-helms/new_english/F1_dur5,396,70,OK,ponDISS,1439.0,ult,F1_dur5,1.0,3.0,5.0,-2.0,0.0,2.0,mono,,
263d3388f4f07e,ers160,2,2,44,https://d3uxfe7dw0hhy7.cloudfront.net/annie-helms/new_english/st1_dur2,456,55,OK,PONdiss,894.0,pen,st1_dur2,3.0,1.0,2.0,0.0,-2.0,-1.0,mono,,
263d3388f4f07e,ers160,2,2,45,https://d3uxfe7dw0hhy7.cloudfront.net/annie-helms/new_english/F4_dur5,384,65,OK,ponDISS,1001.0,ult,F4_dur5,4.0,3.0,5.0,1.0,0.0,2.0,mono,,
263d3388f4f07e,ers160,2,2,46,https://d3uxfe7dw0hhy7.cloudfront.net/annie-helms/new_english/F5_st1,422,90,OK,PONdiss,587.0,pen,F5_st1,5.0,1.0,3.0,2.0,-2.0,0.0,mono,,
263d3388f4f07e,ers160,2,2,47,https://d3uxfe7dw0hhy7.cloudfront.net/annie-helms/new_english/F4_st3,414,115,OK,ponDISS,1040.0,ult,F4_st3,4.0,3.0,3.0,1.0,0.0,0.0,mono,,
263d3388f4f07e,ers160,2,2,48,https://d3uxfe7dw0hhy7.cloudfront.net/annie-helms/new_english/F3_dur2,456,90,OK,PONdiss,864.0,pen,F3_dur2,3.0,3.0,2.0,0.0,0.0,-1.0,mono,,
263d3388f4f07e,ers160,2,2,49,https://d3uxfe7dw0hhy7.cloudfront.net/annie-helms/new_english/F1_st5,425,95,OK,PONdiss,687.0,pen,F1_st5,1.0,5.0,3.0,-2.0,2.0,0.0,mono,,
263d3388f4f07e,ers160,2,2,50,https://d3uxfe7dw0hhy7.cloudfront.net/annie-helms/new_english/F2_dur3,453,125,OK,PONdiss,1087.0,pen,F2_dur3,2.0,3.0,3.0,-1.0,0.0,0.0,mono,,
263d3388f4f07e,ers160,2,2,51,https://d3uxfe7dw0hhy7.cloudfront.net/annie-helms/new_english/F5_dur1,482,90,OK,PONdiss,1170.0,pen,F5_dur1,5.0,3.0,1.0,2.0,0.0,-2.0,mono,,
263d3388f4f07e,ers160,2,2,52,https://d3uxfe7dw0hhy7.cloudfront.net/annie-helms/new_english/st5_dur3,434,65,OK,PONdiss,1119.0,pen,st5_dur3,3.0,5.0,3.0,0.0,2.0,0.0,mono,,
263d3388f4f07e,ers160,2,2,53,https://d3uxfe7dw0hhy7.cloudfront.net/annie-helms/new_english/F3_dur5,389,140,OK,ponDISS,1017.0,ult,F3_dur5,3.0,3.0,5.0,0.0,0.0,2.0,mono,,
263d3388f4f07e,ers160,2,2,54,https://d3uxfe7dw0hhy7.cloudfront.net/annie-helms/new_english/F3_st5,418,75,OK,ponDISS,978.0,ult,F3_st5,3.0,5.0,3.0,0.0,2.0,0.0,mono,,
263d3388f4f07e,ers160,2,2,55,https://d3uxfe7dw0hhy7.cloudfront.net/annie-helms/new_english/F5_st3,422,65,OK,ponDISS,1040.0,ult,F5_st3,5.0,3.0,3.0,2.0,0.0,0.0,mono,,
263d3388f4f07e,ers160,2,2,56,https://d3uxfe7dw0hhy7.cloudfront.net/annie-helms/new_english/F2_st5,438,115,OK,PONdiss,581.0,pen,F2_st5,2.0,5.0,3.0,-1.0,2.0,0.0,mono,,
263d3388f4f07e,ers160,2,2,57,https://d3uxfe7dw0hhy7.cloudfront.net/annie-helms/new_english/F4_dur4,407,105,OK,PONdiss,1149.0,pen,F4_dur4,4.0,3.0,4.0,1.0,0.0,1.0,mono,,
263d3388f4f07e,ers160,2,2,58,https://d3uxfe7dw0hhy7.cloudfront.net/annie-helms/new_english/st1_dur1,478,75,OK,PONdiss,667.0,pen,st1_dur1,3.0,1.0,1.0,0.0,-2.0,-2.0,mono,,
263d3388f4f07e,ers160,2,2,59,https://d3uxfe7dw0hhy7.cloudfront.net/annie-helms/new_english/st4_dur1,478,125,OK,PONdiss,829.0,pen,st4_dur1,3.0,4.0,1.0,0.0,1.0,-2.0,mono,,
263d3388f4f07e,ers160,2,2,60,https://d3uxfe7dw0hhy7.cloudfront.net/annie-helms/new_english/F1_dur2,463,85,OK,PONdiss,820.0,pen,F1_dur2,1.0,3.0,2.0,-2.0,0.0,-1.0,mono,,
263d3388f4f07e,ers160,2,2,61,https://d3uxfe7dw0hhy7.cloudfront.net/annie-helms/new_english/F1_dur1,485,85,OK,PONdiss,836.0,pen,F1_dur1,1.0,3.0,1.0,-2.0,0.0,-2.0,mono,,
263d3388f4f07e,ers160,2,2,62,https://d3uxfe7dw0hhy7.cloudfront.net/annie-helms/new_english/st4_dur3,434,95,OK,PONdiss,830.0,pen,st4_dur3,3.0,4.0,3.0,0.0,1.0,0.0,mono,,
263d3388f4f07e,ers160,2,2,63,https://d3uxfe7dw0hhy7.cloudfront.net/annie-helms/new_english/st3_dur1,478,115,OK,PONdiss,1504.0,pen,st3_dur1,3.0,3.0,1.0,0.0,0.0,-2.0,mono,,
263d3388f4f07e,ers160,2,2,64,https://d3uxfe7dw0hhy7.cloudfront.net/annie-helms/new_english/st3_dur4,411,145,OK,ponDISS,970.0,ult,st3_dur4,3.0,3.0,4.0,0.0,0.0,1.0,mono,,
263d3388f4f07e,ers160,2,2,65,https://d3uxfe7dw0hhy7.cloudfront.net/annie-helms/new_english/F3_st2,418,125,OK,ponDISS,1201.0,ult,F3_st2,3.0,2.0,3.0,0.0,-1.0,0.0,mono,,
263d3388f4f07e,ers160,2,2,66,https://d3uxfe7dw0hhy7.cloudfront.net/annie-helms/new_english/F1_st4,425,110,OK,PONdiss,883.0,pen,F1_st4,1.0,4.0,3.0,-2.0,1.0,0.0,mono,,
263d3388f4f07e,ers160,2,2,67,https://d3uxfe7dw0hhy7.cloudfront.net/annie-helms/new_english/st5_dur2,456,135,OK,PONdiss,1326.0,pen,st5_dur2,3.0,5.0,2.0,0.0,2.0,-1.0,mono,,
263d3388f4f07e,ers160,2,2,68,https://d3uxfe7dw0hhy7.cloudfront.net/annie-helms/new_english/F3_dur4,411,145,OK,ponDISS,865.0,ult,F3_dur4,3.0,3.0,4.0,0.0,0.0,1.0,mono,,
263d3388f4f07e,ers160,2,2,69,https://d3uxfe7dw0hhy7.cloudfront.net/annie-helms/new_english/F2_st1,438,130,OK,PONdiss,1107.0,pen,F2_st1,2.0,1.0,3.0,-1.0,-2.0,0.0,mono,,
263d3388f4f07e,ers160,2,2,70,https://d3uxfe7dw0hhy7.cloudfront.net/annie-helms/new_english/st4_dur4,411,110,OK,ponDISS,1081.0,ult,st4_dur4,3.0,4.0,4.0,0.0,1.0,1.0,mono,,
263d3388f4f07e,ers160,2,2,71,https://d3uxfe7dw0hhy7.cloudfront.net/annie-helms/new_english/F1_dur3,441,100,OK,PONdiss,885.0,pen,F1_dur3,1.0,3.0,3.0,-2.0,0.0,0.0,mono,,
263d3388f4f07e,ers160,2,2,72,https://d3uxfe7dw0hhy7.cloudfront.net/annie-helms/new_english/st3_dur2,456,140,OK,PONdiss,801.0,pen,st3_dur2,3.0,3.0,2.0,0.0,0.0,-1.0,mono,,
263d3388f4f07e,ers160,2,2,73,https://d3uxfe7dw0hhy7.cloudfront.net/annie-helms/new_english/st3_dur5,389,120,OK,ponDISS,725.0,ult,st3_dur5,3.0,3.0,5.0,0.0,0.0,2.0,mono,,
263d3388f4f07e,ers160,2,2,74,https://d3uxfe7dw0hhy7.cloudfront.net/annie-helms/new_english/F2_dur1,498,120,OK,PONdiss,639.0,pen,F2_dur1,2.0,3.0,1.0,-1.0,0.0,-2.0,mono,,
263d80a1301d9b,anm099,2,1,1,https://d3uxfe7dw0hhy7.cloudfront.net/annie-helms/new_english/F3_st2,418,80,OK,ponDISS,1770.0,ult,F3_st2,3.0,2.0,3.0,0.0,-1.0,0.0,mono,,
263d80a1301d9b,anm099,2,1,2,https://d3uxfe7dw0hhy7.cloudfront.net/annie-helms/new_english/st4_dur3,434,35,OK,ponDISS,1089.0,ult,st4_dur3,3.0,4.0,3.0,0.0,1.0,0.0,mono,,
263d80a1301d9b,anm099,2,1,3,https://d3uxfe7dw0hhy7.cloudfront.net/annie-helms/new_english/F3_st3,418,20,OK,ponDISS,676.0,ult,F3_st3,3.0,3.0,3.0,0.0,0.0,0.0,mono,,
263d80a1301d9b,anm099,2,1,4,https://d3uxfe7dw0hhy7.cloudfront.net/annie-helms/new_english/F4_dur1,474,20,OK,ponDISS,1187.0,ult,F4_dur1,4.0,3.0,1.0,1.0,0.0,-2.0,mono,,
263d80a1301d9b,anm099,2,1,5,https://d3uxfe7dw0hhy7.cloudfront.net/annie-helms/new_english/st1_dur5,389,15,OK,ponDISS,643.0,ult,st1_dur5,3.0,1.0,5.0,0.0,-2.0,2.0,mono,,
263d80a1301d9b,anm099,2,1,6,https://d3uxfe7dw0hhy7.cloudfront.net/annie-helms/new_english/F4_dur5,384,10,OK,ponDISS,617.0,ult,F4_dur5,4.0,3.0,5.0,1.0,0.0,2.0,mono,,
263d80a1301d9b,anm099,2,1,7,https://d3uxfe7dw0hhy7.cloudfront.net/annie-helms/new_english/F1_st4,425,20,OK,PONdiss,1090.0,pen,F1_st4,1.0,4.0,3.0,-2.0,1.0,0.0,mono,,
263d80a1301d9b,anm099,2,1,8,https://d3uxfe7dw0hhy7.cloudfront.net/annie-helms/new_english/F2_st1,438,15,OK,PONdiss,494.0,pen,F2_st1,2.0,1.0,3.0,-1.0,-2.0,0.0,mono,,
263d80a1301d9b,anm099,2,1,9,https://d3uxfe7dw0hhy7.cloudfront.net/annie-helms/new_english/F5_dur4,415,25,OK,ponDISS,590.0,ult,F5_dur4,5.0,3.0,4.0,2.0,0.0,1.0,mono,,
263d80a1301d9b,anm099,2,1,10,https://d3uxfe7dw0hhy7.cloudfront.net/annie-helms/new_english/st2_dur5,389,20,OK,ponDISS,513.0,ult,st2_dur5,3.0,2.0,5.0,0.0,-1.0,2.0,mono,,
263d80a1301d9b,anm099,2,1,11,https://d3uxfe7dw0hhy7.cloudfront.net/annie-helms/new_english/F1_st2,425,15,OK,PONdiss,490.0,pen,F1_st2,1.0,2.0,3.0,-2.0,-1.0,0.0,mono,,
263d80a1301d9b,anm099,2,1,12,https://d3uxfe7dw0hhy7.cloudfront.net/annie-helms/new_english/st5_dur2,456,25,OK,PONdiss,720.0,pen,st5_dur2,3.0,5.0,2.0,0.0,2.0,-1.0,mono,,
263d80a1301d9b,anm099,2,1,13,https://d3uxfe7dw0hhy7.cloudfront.net/annie-helms/new_english/F3_dur1,478,20,OK,PONdiss,835.0,pen,F3_dur1,3.0,3.0,1.0,0.0,0.0,-2.0,mono,,
263d80a1301d9b,anm099,2,1,14,https://d3uxfe7dw0hhy7.cloudfront.net/annie-helms/new_english/st4_dur4,411,20,OK,ponDISS,718.0,ult,st4_dur4,3.0,4.0,4.0,0.0,1.0,1.0,mono,,
263d80a1301d9b,anm099,2,1,15,https://d3uxfe7dw0hhy7.cloudfront.net/annie-helms/new_english/F5_st4,422,15,OK,ponDISS,883.0,ult,F5_st4,5.0,4.0,3.0,2.0,1.0,0.0,mono,,
263d80a1301d9b,anm099,2,1,16,https://d3uxfe7dw0hhy7.cloudfront.net/annie-helms/new_english/st2_dur3,434,20,OK,ponDISS,657.0,ult,st2_dur3,3.0,2.0,3.0,0.0,-1.0,0.0,mono,,
263d80a1301d9b,anm099,2,1,17,https://d3uxfe7dw0hhy7.cloudfront.net/annie-helms/new_english/F5_st1,422,20,OK,ponDISS,690.0,ult,F5_st1,5.0,1.0,3.0,2.0,-2.0,0.0,mono,,
263d80a1301d9b,anm099,2,1,18,https://d3uxfe7dw0hhy7.cloudfront.net/annie-helms/new_english/F2_st4,438,15,OK,ponDISS,660.0,ult,F2_st4,2.0,4.0,3.0,-1.0,1.0,0.0,mono,,
263d80a1301d9b,anm099,2,1,19,https://d3uxfe7dw0hhy7.cloudfront.net/annie-helms/new_english/F1_dur2,463,20,OK,PONdiss,663.0,pen,F1_dur2,1.0,3.0,2.0,-2.0,0.0,-1.0,mono,,
263d80a1301d9b,anm099,2,1,20,https://d3uxfe7dw0hhy7.cloudfront.net/annie-helms/new_english/F4_st3,414,35,OK,ponDISS,583.0,ult,F4_st3,4.0,3.0,3.0,1.0,0.0,0.0,mono,,
263d80a1301d9b,anm099,2,1,21,https://d3uxfe7dw0hhy7.cloudfront.net/annie-helms/new_english/F1_dur4,418,15,OK,ponDISS,1052.0,ult,F1_dur4,1.0,3.0,4.0,-2.0,0.0,1.0,mono,,
263d80a1301d9b,anm099,2,1,22,https://d3uxfe7dw0hhy7.cloudfront.net/annie-helms/new_english/F2_st2,438,60,OK,ponDISS,816.0,ult,F2_st2,2.0,2.0,3.0,-1.0,-1.0,0.0,mono,,
263d80a1301d9b,anm099,2,1,23,https://d3uxfe7dw0hhy7.cloudfront.net/annie-helms/new_english/F1_st5,425,20,OK,PONdiss,565.0,pen,F1_st5,1.0,5.0,3.0,-2.0,2.0,0.0,mono,,
263d80a1301d9b,anm099,2,1,24,https://d3uxfe7dw0hhy7.cloudfront.net/annie-helms/new_english/st5_dur3,434,15,OK,ponDISS,645.0,ult,st5_dur3,3.0,5.0,3.0,0.0,2.0,0.0,mono,,
263d80a1301d9b,anm099,2,1,25,https://d3uxfe7dw0hhy7.cloudfront.net/annie-helms/new_english/st4_dur1,478,15,OK,PONdiss,951.0,pen,st4_dur1,3.0,4.0,1.0,0.0,1.0,-2.0,mono,,
263d80a1301d9b,anm099,2,1,26,https://d3uxfe7dw0hhy7.cloudfront.net/annie-helms/new_english/st3_dur2,456,20,OK,ponDISS,338.0,ult,st3_dur2,3.0,3.0,2.0,0.0,0.0,-1.0,mono,,
263d80a1301d9b,anm099,2,1,27,https://d3uxfe7dw0hhy7.cloudfront.net/annie-helms/new_english/F5_dur1,482,15,OK,ponDISS,529.0,ult,F5_dur1,5.0,3.0,1.0,2.0,0.0,-2.0,mono,,
263d80a1301d9b,anm099,2,1,28,https://d3uxfe7dw0hhy7.cloudfront.net/annie-helms/new_english/st4_dur2,456,20,OK,ponDISS,593.0,ult,st4_dur2,3.0,4.0,2.0,0.0,1.0,-1.0,mono,,
263d80a1301d9b,anm099,2,1,29,https://d3uxfe7dw0hhy7.cloudfront.net/annie-helms/new_english/st5_dur1,478,20,OK,PONdiss,1302.0,pen,st5_dur1,3.0,5.0,1.0,0.0,2.0,-2.0,mono,,
263d80a1301d9b,anm099,2,1,30,https://d3uxfe7dw0hhy7.cloudfront.net/annie-helms/new_english/F4_st4,414,20,OK,ponDISS,730.0,ult,F4_st4,4.0,4.0,3.0,1.0,1.0,0.0,mono,,
263d80a1301d9b,anm099,2,1,31,https://d3uxfe7dw0hhy7.cloudfront.net/annie-helms/new_english/F4_st2,414,30,OK,ponDISS,842.0,ult,F4_st2,4.0,2.0,3.0,1.0,-1.0,0.0,mono,,
263d80a1301d9b,anm099,2,1,32,https://d3uxfe7dw0hhy7.cloudfront.net/annie-helms/new_english/F3_dur2,456,15,OK,ponDISS,548.0,ult,F3_dur2,3.0,3.0,2.0,0.0,0.0,-1.0,mono,,
263d80a1301d9b,anm099,2,1,33,https://d3uxfe7dw0hhy7.cloudfront.net/annie-helms/new_english/st4_dur5,389,20,OK,ponDISS,619.0,ult,st4_dur5,3.0,4.0,5.0,0.0,1.0,2.0,mono,,
263d80a1301d9b,anm099,2,1,34,https://d3uxfe7dw0hhy7.cloudfront.net/annie-helms/new_english/st3_dur1,478,15,OK,ponDISS,612.0,ult,st3_dur1,3.0,3.0,1.0,0.0,0.0,-2.0,mono,,
263d80a1301d9b,anm099,2,1,35,https://d3uxfe7dw0hhy7.cloudfront.net/annie-helms/new_english/F1_dur1,485,20,OK,PONdiss,584.0,pen,F1_dur1,1.0,3.0,1.0,-2.0,0.0,-2.0,mono,,
263d80a1301d9b,anm099,2,1,36,https://d3uxfe7dw0hhy7.cloudfront.net/annie-helms/new_english/F4_st1,414,20,OK,ponDISS,665.0,ult,F4_st1,4.0,1.0,3.0,1.0,-2.0,0.0,mono,,
263d80a1301d9b,anm099,2,1,37,https://d3uxfe7dw0hhy7.cloudfront.net/annie-helms/new_english/st2_dur1,478,10,OK,PONdiss,1624.0,pen,st2_dur1,3.0,2.0,1.0,0.0,-1.0,-2.0,mono,,
263d80a1301d9b,anm099,2,1,38,https://d3uxfe7dw0hhy7.cloudfront.net/annie-helms/new_english/F1_st1,425,25,OK,PONdiss,813.0,pen,F1_st1,1.0,1.0,3.0,-2.0,-2.0,0.0,mono,,
263d80a1301d9b,anm099,2,1,39,https://d3uxfe7dw0hhy7.cloudfront.net/annie-helms/new_english/F5_dur2,460,30,OK,ponDISS,562.0,ult,F5_dur2,5.0,3.0,2.0,2.0,0.0,-1.0,mono,,
263d80a1301d9b,anm099,2,1,40,https://d3uxfe7dw0hhy7.cloudfront.net/annie-helms/new_english/F5_st2,422,20,OK,ponDISS,700.0,ult,F5_st2,5.0,2.0,3.0,2.0,-1.0,0.0,mono,,
263d80a1301d9b,anm099,2,1,41,https://d3uxfe7dw0hhy7.cloudfront.net/annie-helms/new_english/F3_dur5,389,20,OK,ponDISS,995.0,ult,F3_dur5,3.0,3.0,5.0,0.0,0.0,2.0,mono,,
263d80a1301d9b,anm099,2,1,42,https://d3uxfe7dw0hhy7.cloudfront.net/annie-helms/new_english/F4_dur3,429,20,OK,ponDISS,487.0,ult,F4_dur3,4.0,3.0,3.0,1.0,0.0,0.0,mono,,
263d80a1301d9b,anm099,2,1,43,https://d3uxfe7dw0hhy7.cloudfront.net/annie-helms/new_english/st5_dur4,411,20,OK,ponDISS,467.0,ult,st5_dur4,3.0,5.0,4.0,0.0,2.0,1.0,mono,,
263d80a1301d9b,anm099,2,1,44,https://d3uxfe7dw0hhy7.cloudfront.net/annie-helms/new_english/F5_dur3,438,15,OK,ponDISS,468.0,ult,F5_dur3,5.0,3.0,3.0,2.0,0.0,0.0,mono,,
263d80a1301d9b,anm099,2,1,45,https://d3uxfe7dw0hhy7.cloudfront.net/annie-helms/new_english/F2_dur4,431,25,OK,ponDISS,568.0,ult,F2_dur4,2.0,3.0,4.0,-1.0,0.0,1.0,mono,,
263d80a1301d9b,anm099,2,1,46,https://d3uxfe7dw0hhy7.cloudfront.net/annie-helms/new_english/F3_dur4,411,20,OK,ponDISS,382.0,ult,F3_dur4,3.0,3.0,4.0,0.0,0.0,1.0,mono,,
263d80a1301d9b,anm099,2,1,47,https://d3uxfe7dw0hhy7.cloudfront.net/annie-helms/new_english/F2_dur5,408,25,OK,ponDISS,469.0,ult,F2_dur5,2.0,3.0,5.0,-1.0,0.0,2.0,mono,,
263d80a1301d9b,anm099,2,1,48,https://d3uxfe7dw0hhy7.cloudfront.net/annie-helms/new_english/st1_dur3,434,20,OK,ponDISS,529.0,ult,st1_dur3,3.0,1.0,3.0,0.0,-2.0,0.0,mono,,
263d80a1301d9b,anm099,2,1,49,https://d3uxfe7dw0hhy7.cloudfront.net/annie-helms/new_english/st1_dur2,456,25,OK,ponDISS,676.0,ult,st1_dur2,3.0,1.0,2.0,0.0,-2.0,-1.0,mono,,
263d80a1301d9b,anm099,2,1,50,https://d3uxfe7dw0hhy7.cloudfront.net/annie-helms/new_english/F5_st3,422,55,OK,ponDISS,519.0,ult,F5_st3,5.0,3.0,3.0,2.0,0.0,0.0,mono,,
263d80a1301d9b,anm099,2,1,51,https://d3uxfe7dw0hhy7.cloudfront.net/annie-helms/new_english/F2_dur1,498,15,OK,PONdiss,507.0,pen,F2_dur1,2.0,3.0,1.0,-1.0,0.0,-2.0,mono,,
263d80a1301d9b,anm099,2,1,52,https://d3uxfe7dw0hhy7.cloudfront.net/annie-helms/new_english/st1_dur4,411,15,OK,ponDISS,544.0,ult,st1_dur4,3.0,1.0,4.0,0.0,-2.0,1.0,mono,,
263d80a1301d9b,anm099,2,1,53,https://d3uxfe7dw0hhy7.cloudfront.net/annie-helms/new_english/st1_dur1,478,15,OK,PONdiss,640.0,pen,st1_dur1,3.0,1.0,1.0,0.0,-2.0,-2.0,mono,,
263d80a1301d9b,anm099,2,1,54,https://d3uxfe7dw0hhy7.cloudfront.net/annie-helms/new_english/F3_dur3,434,20,OK,ponDISS,408.0,ult,F3_dur3,3.0,3.0,3.0,0.0,0.0,0.0,mono,,
263d80a1301d9b,anm099,2,1,55,https://d3uxfe7dw0hhy7.cloudfront.net/annie-helms/new_english/F1_st3,425,40,OK,PONdiss,728.0,pen,F1_st3,1.0,3.0,3.0,-2.0,0.0,0.0,mono,,
263d80a1301d9b,anm099,2,1,56,https://d3uxfe7dw0hhy7.cloudfront.net/annie-helms/new_english/F2_st3,438,20,OK,PONdiss,1203.0,pen,F2_st3,2.0,3.0,3.0,-1.0,0.0,0.0,mono,,
263d80a1301d9b,anm099,2,1,57,https://d3uxfe7dw0hhy7.cloudfront.net/annie-helms/new_english/st3_dur4,411,15,OK,ponDISS,694.0,ult,st3_dur4,3.0,3.0,4.0,0.0,0.0,1.0,mono,,
263d80a1301d9b,anm099,2,1,58,https://d3uxfe7dw0hhy7.cloudfront.net/annie-helms/new_english/st2_dur2,456,35,OK,ponDISS,497.0,ult,st2_dur2,3.0,2.0,2.0,0.0,-1.0,-1.0,mono,,
263d80a1301d9b,anm099,2,1,59,https://d3uxfe7dw0hhy7.cloudfront.net/annie-helms/new_english/F2_dur3,453,15,OK,PONdiss,716.0,pen,F2_dur3,2.0,3.0,3.0,-1.0,0.0,0.0,mono,,
263d80a1301d9b,anm099,2,1,60,https://d3uxfe7dw0hhy7.cloudfront.net/annie-helms/new_english/st3_dur3,434,10,OK,ponDISS,807.0,ult,st3_dur3,3.0,3.0,3.0,0.0,0.0,0.0,mono,,
263d80a1301d9b,anm099,2,1,61,https://d3uxfe7dw0hhy7.cloudfront.net/annie-helms/new_english/st3_dur5,389,15,OK,ponDISS,607.0,ult,st3_dur5,3.0,3.0,5.0,0.0,0.0,2.0,mono,,
263d80a1301d9b,anm099,2,1,62,https://d3uxfe7dw0hhy7.cloudfront.net/annie-helms/new_english/F5_st5,422,15,OK,ponDISS,612.0,ult,F5_st5,5.0,5.0,3.0,2.0,2.0,0.0,mono,,
263d80a1301d9b,anm099,2,1,63,https://d3uxfe7dw0hhy7.cloudfront.net/annie-helms/new_english/F2_st5,438,20,OK,PONdiss,977.0,pen,F2_st5,2.0,5.0,3.0,-1.0,2.0,0.0,mono,,
263d80a1301d9b,anm099,2,1,64,https://d3uxfe7dw0hhy7.cloudfront.net/annie-helms/new_english/F4_dur4,407,20,OK,ponDISS,578.0,ult,F4_dur4,4.0,3.0,4.0,1.0,0.0,1.0,mono,,
263d80a1301d9b,anm099,2,1,65,https://d3uxfe7dw0hhy7.cloudfront.net/annie-helms/new_english/F1_dur5,396,35,OK,ponDISS,768.0,ult,F1_dur5,1.0,3.0,5.0,-2.0,0.0,2.0,mono,,
263d80a1301d9b,anm099,2,1,66,https://d3uxfe7dw0hhy7.cloudfront.net/annie-helms/new_english/F5_dur5,393,25,OK,ponDISS,551.0,ult,F5_dur5,5.0,3.0,5.0,2.0,0.0,2.0,mono,,
263d80a1301d9b,anm099,2,1,67,https://d3uxfe7dw0hhy7.cloudfront.net/annie-helms/new_english/F2_dur2,475,15,OK,PONdiss,550.0,pen,F2_dur2,2.0,3.0,2.0,-1.0,0.0,-1.0,mono,,
263d80a1301d9b,anm099,2,1,68,https://d3uxfe7dw0hhy7.cloudfront.net/annie-helms/new_english/F1_dur3,441,20,OK,PONdiss,641.0,pen,F1_dur3,1.0,3.0,3.0,-2.0,0.0,0.0,mono,,
263d80a1301d9b,anm099,2,1,69,https://d3uxfe7dw0hhy7.cloudfront.net/annie-helms/new_english/F4_st5,414,20,OK,ponDISS,534.0,ult,F4_st5,4.0,5.0,3.0,1.0,2.0,0.0,mono,,
263d80a1301d9b,anm099,2,1,70,https://d3uxfe7dw0hhy7.cloudfront.net/annie-helms/new_english/F4_dur2,451,15,OK,ponDISS,654.0,ult,F4_dur2,4.0,3.0,2.0,1.0,0.0,-1.0,mono,,
263d80a1301d9b,anm099,2,1,71,https://d3uxfe7dw0hhy7.cloudfront.net/annie-helms/new_english/F3_st5,418,15,OK,ponDISS,590.0,ult,F3_st5,3.0,5.0,3.0,0.0,2.0,0.0,mono,,
263d80a1301d9b,anm099,2,1,72,https://d3uxfe7dw0hhy7.cloudfront.net/annie-helms/new_english/st5_dur5,389,15,OK,ponDISS,503.0,ult,st5_dur5,3.0,5.0,5.0,0.0,2.0,2.0,mono,,
263d80a1301d9b,anm099,2,1,73,https://d3uxfe7dw0hhy7.cloudfront.net/annie-helms/new_english/st2_dur4,411,10,OK,ponDISS,455.0,ult,st2_dur4,3.0,2.0,4.0,0.0,-1.0,1.0,mono,,
263d80a1301d9b,anm099,2,1,74,https://d3uxfe7dw0hhy7.cloudfront.net/annie-helms/new_english/F3_st1,418,30,OK,ponDISS,500.0,ult,F3_st1,3.0,1.0,3.0,0.0,-2.0,0.0,mono,,
263d80a1301d9b,anm099,2,2,1,https://d3uxfe7dw0hhy7.cloudfront.net/annie-helms/new_english/F4_dur1,474,25,OK,PONdiss,966.0,pen,F4_dur1,4.0,3.0,1.0,1.0,0.0,-2.0,mono,,
263d80a1301d9b,anm099,2,2,2,https://d3uxfe7dw0hhy7.cloudfront.net/annie-helms/new_english/F3_dur2,456,25,OK,PONdiss,1216.0,pen,F3_dur2,3.0,3.0,2.0,0.0,0.0,-1.0,mono,,
263d80a1301d9b,anm099,2,2,3,https://d3uxfe7dw0hhy7.cloudfront.net/annie-helms/new_english/st1_dur5,389,15,OK,ponDISS,699.0,ult,st1_dur5,3.0,1.0,5.0,0.0,-2.0,2.0,mono,,
263d80a1301d9b,anm099,2,2,4,https://d3uxfe7dw0hhy7.cloudfront.net/annie-helms/new_english/F4_dur2,451,15,OK,ponDISS,1233.0,ult,F4_dur2,4.0,3.0,2.0,1.0,0.0,-1.0,mono,,
263d80a1301d9b,anm099,2,2,5,https://d3uxfe7dw0hhy7.cloudfront.net/annie-helms/new_english/F3_st2,418,20,OK,ponDISS,785.0,ult,F3_st2,3.0,2.0,3.0,0.0,-1.0,0.0,mono,,
263d80a1301d9b,anm099,2,2,6,https://d3uxfe7dw0hhy7.cloudfront.net/annie-helms/new_english/F2_st1,438,15,OK,PONdiss,1368.0,pen,F2_st1,2.0,1.0,3.0,-1.0,-2.0,0.0,mono,,
263d80a1301d9b,anm099,2,2,7,https://d3uxfe7dw0hhy7.cloudfront.net/annie-helms/new_english/F5_st1,422,20,OK,ponDISS,843.0,ult,F5_st1,5.0,1.0,3.0,2.0,-2.0,0.0,mono,,
263d80a1301d9b,anm099,2,2,8,https://d3uxfe7dw0hhy7.cloudfront.net/annie-helms/new_english/st2_dur4,411,25,OK,ponDISS,635.0,ult,st2_dur4,3.0,2.0,4.0,0.0,-1.0,1.0,mono,,
263d80a1301d9b,anm099,2,2,9,https://d3uxfe7dw0hhy7.cloudfront.net/annie-helms/new_english/F4_dur3,429,15,OK,ponDISS,628.0,ult,F4_dur3,4.0,3.0,3.0,1.0,0.0,0.0,mono,,
263d80a1301d9b,anm099,2,2,10,https://d3uxfe7dw0hhy7.cloudfront.net/annie-helms/new_english/st4_dur2,456,25,OK,ponDISS,529.0,ult,st4_dur2,3.0,4.0,2.0,0.0,1.0,-1.0,mono,,
263d80a1301d9b,anm099,2,2,11,https://d3uxfe7dw0hhy7.cloudfront.net/annie-helms/new_english/F3_st4,418,25,OK,ponDISS,486.0,ult,F3_st4,3.0,4.0,3.0,0.0,1.0,0.0,mono,,
263d80a1301d9b,anm099,2,2,12,https://d3uxfe7dw0hhy7.cloudfront.net/annie-helms/new_english/st3_dur4,411,15,OK,ponDISS,514.0,ult,st3_dur4,3.0,3.0,4.0,0.0,0.0,1.0,mono,,
263d80a1301d9b,anm099,2,2,13,https://d3uxfe7dw0hhy7.cloudfront.net/annie-helms/new_english/st2_dur3,434,15,OK,ponDISS,559.0,ult,st2_dur3,3.0,2.0,3.0,0.0,-1.0,0.0,mono,,
263d80a1301d9b,anm099,2,2,14,https://d3uxfe7dw0hhy7.cloudfront.net/annie-helms/new_english/F2_dur5,408,15,OK,ponDISS,503.0,ult,F2_dur5,2.0,3.0,5.0,-1.0,0.0,2.0,mono,,
263d80a1301d9b,anm099,2,2,15,https://d3uxfe7dw0hhy7.cloudfront.net/annie-helms/new_english/st3_dur5,389,20,OK,ponDISS,494.0,ult,st3_dur5,3.0,3.0,5.0,0.0,0.0,2.0,mono,,
263d80a1301d9b,anm099,2,2,16,https://d3uxfe7dw0hhy7.cloudfront.net/annie-helms/new_english/F5_st4,422,30,OK,ponDISS,466.0,ult,F5_st4,5.0,4.0,3.0,2.0,1.0,0.0,mono,,
263d80a1301d9b,anm099,2,2,17,https://d3uxfe7dw0hhy7.cloudfront.net/annie-helms/new_english/st1_dur1,478,20,OK,PONdiss,578.0,pen,st1_dur1,3.0,1.0,1.0,0.0,-2.0,-2.0,mono,,
263d80a1301d9b,anm099,2,2,18,https://d3uxfe7dw0hhy7.cloudfront.net/annie-helms/new_english/F3_dur5,389,25,OK,ponDISS,593.0,ult,F3_dur5,3.0,3.0,5.0,0.0,0.0,2.0,mono,,
263d80a1301d9b,anm099,2,2,19,https://d3uxfe7dw0hhy7.cloudfront.net/annie-helms/new_english/F3_dur4,411,25,OK,ponDISS,617.0,ult,F3_dur4,3.0,3.0,4.0,0.0,0.0,1.0,mono,,
263d80a1301d9b,anm099,2,2,20,https://d3uxfe7dw0hhy7.cloudfront.net/annie-helms/new_english/F3_dur1,478,20,OK,PONdiss,536.0,pen,F3_dur1,3.0,3.0,1.0,0.0,0.0,-2.0,mono,,
263d80a1301d9b,anm099,2,2,21,https://d3uxfe7dw0hhy7.cloudfront.net/annie-helms/new_english/F1_st4,425,30,OK,PONdiss,853.0,pen,F1_st4,1.0,4.0,3.0,-2.0,1.0,0.0,mono,,
263d80a1301d9b,anm099,2,2,22,https://d3uxfe7dw0hhy7.cloudfront.net/annie-helms/new_english/F5_dur5,393,15,OK,ponDISS,653.0,ult,F5_dur5,5.0,3.0,5.0,2.0,0.0,2.0,mono,,
263d80a1301d9b,anm099,2,2,23,https://d3uxfe7dw0hhy7.cloudfront.net/annie-helms/new_english/F5_dur2,460,105,OK,ponDISS,628.0,ult,F5_dur2,5.0,3.0,2.0,2.0,0.0,-1.0,mono,,
263d80a1301d9b,anm099,2,2,24,https://d3uxfe7dw0hhy7.cloudfront.net/annie-helms/new_english/st5_dur5,389,135,OK,ponDISS,600.0,ult,st5_dur5,3.0,5.0,5.0,0.0,2.0,2.0,mono,,
263d80a1301d9b,anm099,2,2,25,https://d3uxfe7dw0hhy7.cloudfront.net/annie-helms/new_english/st5_dur2,456,20,OK,PONdiss,621.0,pen,st5_dur2,3.0,5.0,2.0,0.0,2.0,-1.0,mono,,
263d80a1301d9b,anm099,2,2,26,https://d3uxfe7dw0hhy7.cloudfront.net/annie-helms/new_english/st3_dur3,434,20,OK,ponDISS,589.0,ult,st3_dur3,3.0,3.0,3.0,0.0,0.0,0.0,mono,,
263d80a1301d9b,anm099,2,2,27,https://d3uxfe7dw0hhy7.cloudfront.net/annie-helms/new_english/F2_st5,438,25,OK,PONdiss,478.0,pen,F2_st5,2.0,5.0,3.0,-1.0,2.0,0.0,mono,,
263d80a1301d9b,anm099,2,2,28,https://d3uxfe7dw0hhy7.cloudfront.net/annie-helms/new_english/F2_dur2,475,15,OK,PONdiss,535.0,pen,F2_dur2,2.0,3.0,2.0,-1.0,0.0,-1.0,mono,,
263d80a1301d9b,anm099,2,2,29,https://d3uxfe7dw0hhy7.cloudfront.net/annie-helms/new_english/F1_dur5,396,30,OK,PONdiss,492.0,pen,F1_dur5,1.0,3.0,5.0,-2.0,0.0,2.0,mono,,
263d80a1301d9b,anm099,2,2,30,https://d3uxfe7dw0hhy7.cloudfront.net/annie-helms/new_english/F2_st3,438,30,OK,ponDISS,536.0,ult,F2_st3,2.0,3.0,3.0,-1.0,0.0,0.0,mono,,
263d80a1301d9b,anm099,2,2,31,https://d3uxfe7dw0hhy7.cloudfront.net/annie-helms/new_english/F1_st5,425,20,OK,PONdiss,604.0,pen,F1_st5,1.0,5.0,3.0,-2.0,2.0,0.0,mono,,
263d80a1301d9b,anm099,2,2,32,https://d3uxfe7dw0hhy7.cloudfront.net/annie-helms/new_english/F3_st5,418,30,OK,ponDISS,788.0,ult,F3_st5,3.0,5.0,3.0,0.0,2.0,0.0,mono,,
263d80a1301d9b,anm099,2,2,33,https://d3uxfe7dw0hhy7.cloudfront.net/annie-helms/new_english/F4_st5,414,15,OK,ponDISS,531.0,ult,F4_st5,4.0,5.0,3.0,1.0,2.0,0.0,mono,,
263d80a1301d9b,anm099,2,2,34,https://d3uxfe7dw0hhy7.cloudfront.net/annie-helms/new_english/F3_st3,418,20,OK,ponDISS,730.0,ult,F3_st3,3.0,3.0,3.0,0.0,0.0,0.0,mono,,
263d80a1301d9b,anm099,2,2,35,https://d3uxfe7dw0hhy7.cloudfront.net/annie-helms/new_english/F4_st4,414,20,OK,ponDISS,524.0,ult,F4_st4,4.0,4.0,3.0,1.0,1.0,0.0,mono,,
263d80a1301d9b,anm099,2,2,36,https://d3uxfe7dw0hhy7.cloudfront.net/annie-helms/new_english/F5_st2,422,30,OK,ponDISS,586.0,ult,F5_st2,5.0,2.0,3.0,2.0,-1.0,0.0,mono,,
263d80a1301d9b,anm099,2,2,37,https://d3uxfe7dw0hhy7.cloudfront.net/annie-helms/new_english/st5_dur3,434,25,OK,PONdiss,968.0,pen,st5_dur3,3.0,5.0,3.0,0.0,2.0,0.0,mono,,
263d80a1301d9b,anm099,2,2,38,https://d3uxfe7dw0hhy7.cloudfront.net/annie-helms/new_english/F5_dur1,482,20,OK,PONdiss,1051.0,pen,F5_dur1,5.0,3.0,1.0,2.0,0.0,-2.0,mono,,
263d80a1301d9b,anm099,2,2,39,https://d3uxfe7dw0hhy7.cloudfront.net/annie-helms/new_english/st5_dur1,478,20,OK,PONdiss,670.0,pen,st5_dur1,3.0,5.0,1.0,0.0,2.0,-2.0,mono,,
263d80a1301d9b,anm099,2,2,40,https://d3uxfe7dw0hhy7.cloudfront.net/annie-helms/new_english/st1_dur2,456,25,OK,PONdiss,468.0,pen,st1_dur2,3.0,1.0,2.0,0.0,-2.0,-1.0,mono,,
263d80a1301d9b,anm099,2,2,41,https://d3uxfe7dw0hhy7.cloudfront.net/annie-helms/new_english/F1_dur2,463,20,OK,PONdiss,593.0,pen,F1_dur2,1.0,3.0,2.0,-2.0,0.0,-1.0,mono,,
263d80a1301d9b,anm099,2,2,42,https://d3uxfe7dw0hhy7.cloudfront.net/annie-helms/new_english/F4_dur4,407,15,OK,ponDISS,768.0,ult,F4_dur4,4.0,3.0,4.0,1.0,0.0,1.0,mono,,
263d80a1301d9b,anm099,2,2,43,https://d3uxfe7dw0hhy7.cloudfront.net/annie-helms/new_english/F2_dur1,498,25,OK,PONdiss,737.0,pen,F2_dur1,2.0,3.0,1.0,-1.0,0.0,-2.0,mono,,
263d80a1301d9b,anm099,2,2,44,https://d3uxfe7dw0hhy7.cloudfront.net/annie-helms/new_english/st4_dur4,411,30,OK,ponDISS,1083.0,ult,st4_dur4,3.0,4.0,4.0,0.0,1.0,1.0,mono,,
263d80a1301d9b,anm099,2,2,45,https://d3uxfe7dw0hhy7.cloudfront.net/annie-helms/new_english/st1_dur4,411,25,OK,ponDISS,661.0,ult,st1_dur4,3.0,1.0,4.0,0.0,-2.0,1.0,mono,,
263d80a1301d9b,anm099,2,2,46,https://d3uxfe7dw0hhy7.cloudfront.net/annie-helms/new_english/F1_st2,425,25,OK,PONdiss,575.0,pen,F1_st2,1.0,2.0,3.0,-2.0,-1.0,0.0,mono,,
263d80a1301d9b,anm099,2,2,47,https://d3uxfe7dw0hhy7.cloudfront.net/annie-helms/new_english/F4_st1,414,15,OK,ponDISS,584.0,ult,F4_st1,4.0,1.0,3.0,1.0,-2.0,0.0,mono,,
263d80a1301d9b,anm099,2,2,48,https://d3uxfe7dw0hhy7.cloudfront.net/annie-helms/new_english/F1_st3,425,25,OK,PONdiss,532.0,pen,F1_st3,1.0,3.0,3.0,-2.0,0.0,0.0,mono,,
263d80a1301d9b,anm099,2,2,49,https://d3uxfe7dw0hhy7.cloudfront.net/annie-helms/new_english/st1_dur3,434,20,OK,ponDISS,564.0,ult,st1_dur3,3.0,1.0,3.0,0.0,-2.0,0.0,mono,,
263d80a1301d9b,anm099,2,2,50,https://d3uxfe7dw0hhy7.cloudfront.net/annie-helms/new_english/F5_st5,422,30,OK,ponDISS,775.0,ult,F5_st5,5.0,5.0,3.0,2.0,2.0,0.0,mono,,
263d80a1301d9b,anm099,2,2,51,https://d3uxfe7dw0hhy7.cloudfront.net/annie-helms/new_english/st4_dur1,478,20,OK,PONdiss,522.0,pen,st4_dur1,3.0,4.0,1.0,0.0,1.0,-2.0,mono,,
263d80a1301d9b,anm099,2,2,52,https://d3uxfe7dw0hhy7.cloudfront.net/annie-helms/new_english/F3_st1,418,15,OK,ponDISS,655.0,ult,F3_st1,3.0,1.0,3.0,0.0,-2.0,0.0,mono,,
263d80a1301d9b,anm099,2,2,53,https://d3uxfe7dw0hhy7.cloudfront.net/annie-helms/new_english/F2_dur4,431,25,OK,PONdiss,595.0,pen,F2_dur4,2.0,3.0,4.0,-1.0,0.0,1.0,mono,,
263d80a1301d9b,anm099,2,2,54,https://d3uxfe7dw0hhy7.cloudfront.net/annie-helms/new_english/F5_dur4,415,15,OK,ponDISS,416.0,ult,F5_dur4,5.0,3.0,4.0,2.0,0.0,1.0,mono,,
263d80a1301d9b,anm099,2,2,55,https://d3uxfe7dw0hhy7.cloudfront.net/annie-helms/new_english/st4_dur3,434,20,OK,PONdiss,946.0,pen,st4_dur3,3.0,4.0,3.0,0.0,1.0,0.0,mono,,
263d80a1301d9b,anm099,2,2,56,https://d3uxfe7dw0hhy7.cloudfront.net/annie-helms/new_english/st3_dur2,456,20,OK,PONdiss,1088.0,pen,st3_dur2,3.0,3.0,2.0,0.0,0.0,-1.0,mono,,
263d80a1301d9b,anm099,2,2,57,https://d3uxfe7dw0hhy7.cloudfront.net/annie-helms/new_english/F1_dur1,485,20,OK,PONdiss,585.0,pen,F1_dur1,1.0,3.0,1.0,-2.0,0.0,-2.0,mono,,
263d80a1301d9b,anm099,2,2,58,https://d3uxfe7dw0hhy7.cloudfront.net/annie-helms/new_english/st3_dur1,478,15,OK,PONdiss,694.0,pen,st3_dur1,3.0,3.0,1.0,0.0,0.0,-2.0,mono,,
263d80a1301d9b,anm099,2,2,59,https://d3uxfe7dw0hhy7.cloudfront.net/annie-helms/new_english/st5_dur4,411,55,OK,ponDISS,867.0,ult,st5_dur4,3.0,5.0,4.0,0.0,2.0,1.0,mono,,
263d80a1301d9b,anm099,2,2,60,https://d3uxfe7dw0hhy7.cloudfront.net/annie-helms/new_english/st2_dur2,456,30,OK,PONdiss,782.0,pen,st2_dur2,3.0,2.0,2.0,0.0,-1.0,-1.0,mono,,
263d80a1301d9b,anm099,2,2,61,https://d3uxfe7dw0hhy7.cloudfront.net/annie-helms/new_english/F1_dur3,441,10,OK,PONdiss,726.0,pen,F1_dur3,1.0,3.0,3.0,-2.0,0.0,0.0,mono,,
263d80a1301d9b,anm099,2,2,62,https://d3uxfe7dw0hhy7.cloudfront.net/annie-helms/new_english/F1_st1,425,15,OK,PONdiss,757.0,pen,F1_st1,1.0,1.0,3.0,-2.0,-2.0,0.0,mono,,
263d80a1301d9b,anm099,2,2,63,https://d3uxfe7dw0hhy7.cloudfront.net/annie-helms/new_english/F4_st2,414,20,OK,ponDISS,625.0,ult,F4_st2,4.0,2.0,3.0,1.0,-1.0,0.0,mono,,
263d80a1301d9b,anm099,2,2,64,https://d3uxfe7dw0hhy7.cloudfront.net/annie-helms/new_english/F4_st3,414,25,OK,ponDISS,681.0,ult,F4_st3,4.0,3.0,3.0,1.0,0.0,0.0,mono,,
263d80a1301d9b,anm099,2,2,65,https://d3uxfe7dw0hhy7.cloudfront.net/annie-helms/new_english/F3_dur3,434,65,OK,ponDISS,766.0,ult,F3_dur3,3.0,3.0,3.0,0.0,0.0,0.0,mono,,
263d80a1301d9b,anm099,2,2,66,https://d3uxfe7dw0hhy7.cloudfront.net/annie-helms/new_english/F2_st2,438,25,OK,PONdiss,871.0,pen,F2_st2,2.0,2.0,3.0,-1.0,-1.0,0.0,mono,,
263d80a1301d9b,anm099,2,2,67,https://d3uxfe7dw0hhy7.cloudfront.net/annie-helms/new_english/F1_dur4,418,25,OK,PONdiss,766.0,pen,F1_dur4,1.0,3.0,4.0,-2.0,0.0,1.0,mono,,
263d80a1301d9b,anm099,2,2,68,https://d3uxfe7dw0hhy7.cloudfront.net/annie-helms/new_english/st2_dur5,389,25,OK,ponDISS,709.0,ult,st2_dur5,3.0,2.0,5.0,0.0,-1.0,2.0,mono,,
263d80a1301d9b,anm099,2,2,69,https://d3uxfe7dw0hhy7.cloudfront.net/annie-helms/new_english/F5_dur3,438,20,OK,ponDISS,680.0,ult,F5_dur3,5.0,3.0,3.0,2.0,0.0,0.0,mono,,
263d80a1301d9b,anm099,2,2,70,https://d3uxfe7dw0hhy7.cloudfront.net/annie-helms/new_english/F2_dur3,453,25,OK,PONdiss,624.0,pen,F2_dur3,2.0,3.0,3.0,-1.0,0.0,0.0,mono,,
263d80a1301d9b,anm099,2,2,71,https://d3uxfe7dw0hhy7.cloudfront.net/annie-helms/new_english/F2_st4,438,25,OK,PONdiss,594.0,pen,F2_st4,2.0,4.0,3.0,-1.0,1.0,0.0,mono,,
263d80a1301d9b,anm099,2,2,72,https://d3uxfe7dw0hhy7.cloudfront.net/annie-helms/new_english/F4_dur5,384,35,OK,ponDISS,563.0,ult,F4_dur5,4.0,3.0,5.0,1.0,0.0,2.0,mono,,
263d80a1301d9b,anm099,2,2,73,https://d3uxfe7dw0hhy7.cloudfront.net/annie-helms/new_english/st2_dur1,478,25,OK,PONdiss,547.0,pen,st2_dur1,3.0,2.0,1.0,0.0,-1.0,-2.0,mono,,
263d80a1301d9b,anm099,2,2,74,https://d3uxfe7dw0hhy7.cloudfront.net/annie-helms/new_english/F5_st3,422,20,OK,ponDISS,588.0,ult,F5_st3,5.0,3.0,3.0,2.0,0.0,0.0,mono,,
263d9dba414ca4,ywm017,2,1,1,https://d3uxfe7dw0hhy7.cloudfront.net/annie-helms/new_english/F5_st1,422,20,OK,PONdiss,1024.0,pen,F5_st1,5.0,1.0,3.0,2.0,-2.0,0.0,mono,,
263d9dba414ca4,ywm017,2,1,2,https://d3uxfe7dw0hhy7.cloudfront.net/annie-helms/new_english/F2_st3,438,20,OK,PONdiss,964.0,pen,F2_st3,2.0,3.0,3.0,-1.0,0.0,0.0,mono,,
263d9dba414ca4,ywm017,2,1,3,https://d3uxfe7dw0hhy7.cloudfront.net/annie-helms/new_english/F1_st5,425,20,OK,PONdiss,956.0,pen,F1_st5,1.0,5.0,3.0,-2.0,2.0,0.0,mono,,
263d9dba414ca4,ywm017,2,1,4,https://d3uxfe7dw0hhy7.cloudfront.net/annie-helms/new_english/F4_st4,414,20,OK,ponDISS,749.0,ult,F4_st4,4.0,4.0,3.0,1.0,1.0,0.0,mono,,
263d9dba414ca4,ywm017,2,1,5,https://d3uxfe7dw0hhy7.cloudfront.net/annie-helms/new_english/st2_dur4,411,25,OK,ponDISS,649.0,ult,st2_dur4,3.0,2.0,4.0,0.0,-1.0,1.0,mono,,
263d9dba414ca4,ywm017,2,1,6,https://d3uxfe7dw0hhy7.cloudfront.net/annie-helms/new_english/F4_st1,414,10,OK,PONdiss,815.0,pen,F4_st1,4.0,1.0,3.0,1.0,-2.0,0.0,mono,,
263d9dba414ca4,ywm017,2,1,7,https://d3uxfe7dw0hhy7.cloudfront.net/annie-helms/new_english/st1_dur2,456,15,OK,PONdiss,843.0,pen,st1_dur2,3.0,1.0,2.0,0.0,-2.0,-1.0,mono,,
263d9dba414ca4,ywm017,2,1,8,https://d3uxfe7dw0hhy7.cloudfront.net/annie-helms/new_english/st2_dur3,434,20,OK,PONdiss,693.0,pen,st2_dur3,3.0,2.0,3.0,0.0,-1.0,0.0,mono,,
263d9dba414ca4,ywm017,2,1,9,https://d3uxfe7dw0hhy7.cloudfront.net/annie-helms/new_english/F3_dur3,434,20,OK,PONdiss,659.0,pen,F3_dur3,3.0,3.0,3.0,0.0,0.0,0.0,mono,,
263d9dba414ca4,ywm017,2,1,10,https://d3uxfe7dw0hhy7.cloudfront.net/annie-helms/new_english/st5_dur2,456,20,OK,PONdiss,644.0,pen,st5_dur2,3.0,5.0,2.0,0.0,2.0,-1.0,mono,,
263d9dba414ca4,ywm017,2,1,11,https://d3uxfe7dw0hhy7.cloudfront.net/annie-helms/new_english/F4_dur4,407,25,OK,ponDISS,915.0,ult,F4_dur4,4.0,3.0,4.0,1.0,0.0,1.0,mono,,
263d9dba414ca4,ywm017,2,1,12,https://d3uxfe7dw0hhy7.cloudfront.net/annie-helms/new_english/F3_dur5,389,20,OK,ponDISS,621.0,ult,F3_dur5,3.0,3.0,5.0,0.0,0.0,2.0,mono,,
263d9dba414ca4,ywm017,2,1,13,https://d3uxfe7dw0hhy7.cloudfront.net/annie-helms/new_english/F2_dur4,431,20,OK,PONdiss,660.0,pen,F2_dur4,2.0,3.0,4.0,-1.0,0.0,1.0,mono,,
263d9dba414ca4,ywm017,2,1,14,https://d3uxfe7dw0hhy7.cloudfront.net/annie-helms/new_english/F5_dur3,438,20,OK,ponDISS,638.0,ult,F5_dur3,5.0,3.0,3.0,2.0,0.0,0.0,mono,,
263d9dba414ca4,ywm017,2,1,15,https://d3uxfe7dw0hhy7.cloudfront.net/annie-helms/new_english/F5_st4,422,20,OK,ponDISS,754.0,ult,F5_st4,5.0,4.0,3.0,2.0,1.0,0.0,mono,,
263d9dba414ca4,ywm017,2,1,16,https://d3uxfe7dw0hhy7.cloudfront.net/annie-helms/new_english/st2_dur2,456,20,OK,PONdiss,745.0,pen,st2_dur2,3.0,2.0,2.0,0.0,-1.0,-1.0,mono,,
263d9dba414ca4,ywm017,2,1,17,https://d3uxfe7dw0hhy7.cloudfront.net/annie-helms/new_english/F1_st1,425,20,OK,PONdiss,906.0,pen,F1_st1,1.0,1.0,3.0,-2.0,-2.0,0.0,mono,,
263d9dba414ca4,ywm017,2,1,18,https://d3uxfe7dw0hhy7.cloudfront.net/annie-helms/new_english/F5_dur5,393,20,OK,ponDISS,646.0,ult,F5_dur5,5.0,3.0,5.0,2.0,0.0,2.0,mono,,
263d9dba414ca4,ywm017,2,1,19,https://d3uxfe7dw0hhy7.cloudfront.net/annie-helms/new_english/F1_dur1,485,15,OK,PONdiss,588.0,pen,F1_dur1,1.0,3.0,1.0,-2.0,0.0,-2.0,mono,,
263d9dba414ca4,ywm017,2,1,20,https://d3uxfe7dw0hhy7.cloudfront.net/annie-helms/new_english/st5_dur1,478,25,OK,PONdiss,742.0,pen,st5_dur1,3.0,5.0,1.0,0.0,2.0,-2.0,mono,,
263d9dba414ca4,ywm017,2,1,21,https://d3uxfe7dw0hhy7.cloudfront.net/annie-helms/new_english/st3_dur2,456,20,OK,PONdiss,596.0,pen,st3_dur2,3.0,3.0,2.0,0.0,0.0,-1.0,mono,,
263d9dba414ca4,ywm017,2,1,22,https://d3uxfe7dw0hhy7.cloudfront.net/annie-helms/new_english/st4_dur2,456,15,OK,PONdiss,654.0,pen,st4_dur2,3.0,4.0,2.0,0.0,1.0,-1.0,mono,,
263d9dba414ca4,ywm017,2,1,23,https://d3uxfe7dw0hhy7.cloudfront.net/annie-helms/new_english/F1_st4,425,20,OK,PONdiss,662.0,pen,F1_st4,1.0,4.0,3.0,-2.0,1.0,0.0,mono,,
263d9dba414ca4,ywm017,2,1,24,https://d3uxfe7dw0hhy7.cloudfront.net/annie-helms/new_english/F5_dur4,415,25,OK,ponDISS,660.0,ult,F5_dur4,5.0,3.0,4.0,2.0,0.0,1.0,mono,,
263d9dba414ca4,ywm017,2,1,25,https://d3uxfe7dw0hhy7.cloudfront.net/annie-helms/new_english/F4_dur1,474,20,OK,ponDISS,581.0,ult,F4_dur1,4.0,3.0,1.0,1.0,0.0,-2.0,mono,,
263d9dba414ca4,ywm017,2,1,26,https://d3uxfe7dw0hhy7.cloudfront.net/annie-helms/new_english/st3_dur1,478,20,OK,PONdiss,732.0,pen,st3_dur1,3.0,3.0,1.0,0.0,0.0,-2.0,mono,,
263d9dba414ca4,ywm017,2,1,27,https://d3uxfe7dw0hhy7.cloudfront.net/annie-helms/new_english/F2_st5,438,20,OK,PONdiss,649.0,pen,F2_st5,2.0,5.0,3.0,-1.0,2.0,0.0,mono,,
263d9dba414ca4,ywm017,2,1,28,https://d3uxfe7dw0hhy7.cloudfront.net/annie-helms/new_english/st4_dur4,411,20,OK,ponDISS,694.0,ult,st4_dur4,3.0,4.0,4.0,0.0,1.0,1.0,mono,,
263d9dba414ca4,ywm017,2,1,29,https://d3uxfe7dw0hhy7.cloudfront.net/annie-helms/new_english/st1_dur5,389,25,OK,ponDISS,721.0,ult,st1_dur5,3.0,1.0,5.0,0.0,-2.0,2.0,mono,,
263d9dba414ca4,ywm017,2,1,30,https://d3uxfe7dw0hhy7.cloudfront.net/annie-helms/new_english/F5_dur1,482,20,OK,ponDISS,752.0,ult,F5_dur1,5.0,3.0,1.0,2.0,0.0,-2.0,mono,,
263d9dba414ca4,ywm017,2,1,31,https://d3uxfe7dw0hhy7.cloudfront.net/annie-helms/new_english/F3_st2,418,20,OK,ponDISS,1220.0,ult,F3_st2,3.0,2.0,3.0,0.0,-1.0,0.0,mono,,
263d9dba414ca4,ywm017,2,1,32,https://d3uxfe7dw0hhy7.cloudfront.net/annie-helms/new_english/F3_st5,418,15,OK,ponDISS,782.0,ult,F3_st5,3.0,5.0,3.0,0.0,2.0,0.0,mono,,
263d9dba414ca4,ywm017,2,1,33,https://d3uxfe7dw0hhy7.cloudfront.net/annie-helms/new_english/F1_dur3,441,20,OK,PONdiss,823.0,pen,F1_dur3,1.0,3.0,3.0,-2.0,0.0,0.0,mono,,
263d9dba414ca4,ywm017,2,1,34,https://d3uxfe7dw0hhy7.cloudfront.net/annie-helms/new_english/F3_dur4,411,25,OK,PONdiss,608.0,pen,F3_dur4,3.0,3.0,4.0,0.0,0.0,1.0,mono,,
263d9dba414ca4,ywm017,2,1,35,https://d3uxfe7dw0hhy7.cloudfront.net/annie-helms/new_english/F3_st4,418,25,OK,ponDISS,795.0,ult,F3_st4,3.0,4.0,3.0,0.0,1.0,0.0,mono,,
263d9dba414ca4,ywm017,2,1,36,https://d3uxfe7dw0hhy7.cloudfront.net/annie-helms/new_english/F1_st3,425,20,OK,PONdiss,723.0,pen,F1_st3,1.0,3.0,3.0,-2.0,0.0,0.0,mono,,
263d9dba414ca4,ywm017,2,1,37,https://d3uxfe7dw0hhy7.cloudfront.net/annie-helms/new_english/F5_st2,422,20,OK,ponDISS,674.0,ult,F5_st2,5.0,2.0,3.0,2.0,-1.0,0.0,mono,,
263d9dba414ca4,ywm017,2,1,38,https://d3uxfe7dw0hhy7.cloudfront.net/annie-helms/new_english/F4_st5,414,15,OK,ponDISS,707.0,ult,F4_st5,4.0,5.0,3.0,1.0,2.0,0.0,mono,,
263d9dba414ca4,ywm017,2,1,39,https://d3uxfe7dw0hhy7.cloudfront.net/annie-helms/new_english/st5_dur5,389,25,OK,ponDISS,674.0,ult,st5_dur5,3.0,5.0,5.0,0.0,2.0,2.0,mono,,
263d9dba414ca4,ywm017,2,1,40,https://d3uxfe7dw0hhy7.cloudfront.net/annie-helms/new_english/F1_dur2,463,25,OK,PONdiss,722.0,pen,F1_dur2,1.0,3.0,2.0,-2.0,0.0,-1.0,mono,,
263d9dba414ca4,ywm017,2,1,41,https://d3uxfe7dw0hhy7.cloudfront.net/annie-helms/new_english/F4_dur3,429,20,OK,ponDISS,720.0,ult,F4_dur3,4.0,3.0,3.0,1.0,0.0,0.0,mono,,
263d9dba414ca4,ywm017,2,1,42,https://d3uxfe7dw0hhy7.cloudfront.net/annie-helms/new_english/st2_dur1,478,20,OK,PONdiss,678.0,pen,st2_dur1,3.0,2.0,1.0,0.0,-1.0,-2.0,mono,,
263d9dba414ca4,ywm017,2,1,43,https://d3uxfe7dw0hhy7.cloudfront.net/annie-helms/new_english/F2_dur2,475,20,OK,PONdiss,672.0,pen,F2_dur2,2.0,3.0,2.0,-1.0,0.0,-1.0,mono,,
263d9dba414ca4,ywm017,2,1,44,https://d3uxfe7dw0hhy7.cloudfront.net/annie-helms/new_english/F4_st3,414,20,OK,ponDISS,663.0,ult,F4_st3,4.0,3.0,3.0,1.0,0.0,0.0,mono,,
263d9dba414ca4,ywm017,2,1,45,https://d3uxfe7dw0hhy7.cloudfront.net/annie-helms/new_english/st3_dur5,389,20,OK,ponDISS,986.0,ult,st3_dur5,3.0,3.0,5.0,0.0,0.0,2.0,mono,,
263d9dba414ca4,ywm017,2,1,46,https://d3uxfe7dw0hhy7.cloudfront.net/annie-helms/new_english/F2_dur5,408,25,OK,ponDISS,580.0,ult,F2_dur5,2.0,3.0,5.0,-1.0,0.0,2.0,mono,,
263d9dba414ca4,ywm017,2,1,47,https://d3uxfe7dw0hhy7.cloudfront.net/annie-helms/new_english/st2_dur5,389,20,OK,ponDISS,582.0,ult,st2_dur5,3.0,2.0,5.0,0.0,-1.0,2.0,mono,,
263d9dba414ca4,ywm017,2,1,48,https://d3uxfe7dw0hhy7.cloudfront.net/annie-helms/new_english/F1_st2,425,25,OK,PONdiss,673.0,pen,F1_st2,1.0,2.0,3.0,-2.0,-1.0,0.0,mono,,
263d9dba414ca4,ywm017,2,1,49,https://d3uxfe7dw0hhy7.cloudfront.net/annie-helms/new_english/F5_st3,422,20,OK,ponDISS,897.0,ult,F5_st3,5.0,3.0,3.0,2.0,0.0,0.0,mono,,
263d9dba414ca4,ywm017,2,1,50,https://d3uxfe7dw0hhy7.cloudfront.net/annie-helms/new_english/st4_dur5,389,20,OK,ponDISS,738.0,ult,st4_dur5,3.0,4.0,5.0,0.0,1.0,2.0,mono,,
263d9dba414ca4,ywm017,2,1,51,https://d3uxfe7dw0hhy7.cloudfront.net/annie-helms/new_english/F2_st1,438,20,OK,PONdiss,736.0,pen,F2_st1,2.0,1.0,3.0,-1.0,-2.0,0.0,mono,,
263d9dba414ca4,ywm017,2,1,52,https://d3uxfe7dw0hhy7.cloudfront.net/annie-helms/new_english/F2_st2,438,20,OK,PONdiss,769.0,pen,F2_st2,2.0,2.0,3.0,-1.0,-1.0,0.0,mono,,
263d9dba414ca4,ywm017,2,1,53,https://d3uxfe7dw0hhy7.cloudfront.net/annie-helms/new_english/st4_dur1,478,20,OK,PONdiss,693.0,pen,st4_dur1,3.0,4.0,1.0,0.0,1.0,-2.0,mono,,
263d9dba414ca4,ywm017,2,1,54,https://d3uxfe7dw0hhy7.cloudfront.net/annie-helms/new_english/F2_dur1,498,20,OK,PONdiss,771.0,pen,F2_dur1,2.0,3.0,1.0,-1.0,0.0,-2.0,mono,,
263d9dba414ca4,ywm017,2,1,55,https://d3uxfe7dw0hhy7.cloudfront.net/annie-helms/new_english/st3_dur3,434,20,OK,ponDISS,737.0,ult,st3_dur3,3.0,3.0,3.0,0.0,0.0,0.0,mono,,
263d9dba414ca4,ywm017,2,1,56,https://d3uxfe7dw0hhy7.cloudfront.net/annie-helms/new_english/F4_st2,414,20,OK,ponDISS,522.0,ult,F4_st2,4.0,2.0,3.0,1.0,-1.0,0.0,mono,,
263d9dba414ca4,ywm017,2,1,57,https://d3uxfe7dw0hhy7.cloudfront.net/annie-helms/new_english/st5_dur3,434,20,OK,ponDISS,564.0,ult,st5_dur3,3.0,5.0,3.0,0.0,2.0,0.0,mono,,
263d9dba414ca4,ywm017,2,1,58,https://d3uxfe7dw0hhy7.cloudfront.net/annie-helms/new_english/st4_dur3,434,15,OK,ponDISS,547.0,ult,st4_dur3,3.0,4.0,3.0,0.0,1.0,0.0,mono,,
263d9dba414ca4,ywm017,2,1,59,https://d3uxfe7dw0hhy7.cloudfront.net/annie-helms/new_english/F4_dur5,384,25,OK,ponDISS,581.0,ult,F4_dur5,4.0,3.0,5.0,1.0,0.0,2.0,mono,,
263d9dba414ca4,ywm017,2,1,60,https://d3uxfe7dw0hhy7.cloudfront.net/annie-helms/new_english/st3_dur4,411,20,OK,ponDISS,646.0,ult,st3_dur4,3.0,3.0,4.0,0.0,0.0,1.0,mono,,
263d9dba414ca4,ywm017,2,1,61,https://d3uxfe7dw0hhy7.cloudfront.net/annie-helms/new_english/st1_dur4,411,20,OK,ponDISS,599.0,ult,st1_dur4,3.0,1.0,4.0,0.0,-2.0,1.0,mono,,
263d9dba414ca4,ywm017,2,1,62,https://d3uxfe7dw0hhy7.cloudfront.net/annie-helms/new_english/st5_dur4,411,20,OK,ponDISS,491.0,ult,st5_dur4,3.0,5.0,4.0,0.0,2.0,1.0,mono,,
263d9dba414ca4,ywm017,2,1,63,https://d3uxfe7dw0hhy7.cloudfront.net/annie-helms/new_english/F5_dur2,460,15,OK,ponDISS,630.0,ult,F5_dur2,5.0,3.0,2.0,2.0,0.0,-1.0,mono,,
263d9dba414ca4,ywm017,2,1,64,https://d3uxfe7dw0hhy7.cloudfront.net/annie-helms/new_english/F2_st4,438,20,OK,PONdiss,856.0,pen,F2_st4,2.0,4.0,3.0,-1.0,1.0,0.0,mono,,
263d9dba414ca4,ywm017,2,1,65,https://d3uxfe7dw0hhy7.cloudfront.net/annie-helms/new_english/F3_st3,418,20,OK,ponDISS,756.0,ult,F3_st3,3.0,3.0,3.0,0.0,0.0,0.0,mono,,
263d9dba414ca4,ywm017,2,1,66,https://d3uxfe7dw0hhy7.cloudfront.net/annie-helms/new_english/F2_dur3,453,25,OK,ponDISS,897.0,ult,F2_dur3,2.0,3.0,3.0,-1.0,0.0,0.0,mono,,
263d9dba414ca4,ywm017,2,1,67,https://d3uxfe7dw0hhy7.cloudfront.net/annie-helms/new_english/F3_dur1,478,20,OK,ponDISS,973.0,ult,F3_dur1,3.0,3.0,1.0,0.0,0.0,-2.0,mono,,
263d9dba414ca4,ywm017,2,1,68,https://d3uxfe7dw0hhy7.cloudfront.net/annie-helms/new_english/F1_dur4,418,20,OK,ponDISS,862.0,ult,F1_dur4,1.0,3.0,4.0,-2.0,0.0,1.0,mono,,
263d9dba414ca4,ywm017,2,1,69,https://d3uxfe7dw0hhy7.cloudfront.net/annie-helms/new_english/F1_dur5,396,25,OK,ponDISS,939.0,ult,F1_dur5,1.0,3.0,5.0,-2.0,0.0,2.0,mono,,
263d9dba414ca4,ywm017,2,1,70,https://d3uxfe7dw0hhy7.cloudfront.net/annie-helms/new_english/F3_dur2,456,15,OK,ponDISS,813.0,ult,F3_dur2,3.0,3.0,2.0,0.0,0.0,-1.0,mono,,
263d9dba414ca4,ywm017,2,1,71,https://d3uxfe7dw0hhy7.cloudfront.net/annie-helms/new_english/F3_st1,418,20,OK,ponDISS,971.0,ult,F3_st1,3.0,1.0,3.0,0.0,-2.0,0.0,mono,,
263d9dba414ca4,ywm017,2,1,72,https://d3uxfe7dw0hhy7.cloudfront.net/annie-helms/new_english/st1_dur1,478,15,OK,PONdiss,895.0,pen,st1_dur1,3.0,1.0,1.0,0.0,-2.0,-2.0,mono,,
263d9dba414ca4,ywm017,2,1,73,https://d3uxfe7dw0hhy7.cloudfront.net/annie-helms/new_english/st1_dur3,434,20,OK,PONdiss,661.0,pen,st1_dur3,3.0,1.0,3.0,0.0,-2.0,0.0,mono,,
263d9dba414ca4,ywm017,2,1,74,https://d3uxfe7dw0hhy7.cloudfront.net/annie-helms/new_english/F5_st5,422,10,OK,ponDISS,705.0,ult,F5_st5,5.0,5.0,3.0,2.0,2.0,0.0,mono,,
263d9dba414ca4,ywm017,2,2,0,https://d3uxfe7dw0hhy7.cloudfront.net/annie-helms/new_english/F2_st5,438,25,OK,ponDISS,2139.0,ult,F2_st5,2.0,5.0,3.0,-1.0,2.0,0.0,mono,,
263d9dba414ca4,ywm017,2,2,1,https://d3uxfe7dw0hhy7.cloudfront.net/annie-helms/new_english/F4_st5,414,25,OK,ponDISS,1140.0,ult,F4_st5,4.0,5.0,3.0,1.0,2.0,0.0,mono,,
263d9dba414ca4,ywm017,2,2,2,https://d3uxfe7dw0hhy7.cloudfront.net/annie-helms/new_english/F4_dur4,407,15,OK,ponDISS,1026.0,ult,F4_dur4,4.0,3.0,4.0,1.0,0.0,1.0,mono,,
263d9dba414ca4,ywm017,2,2,3,https://d3uxfe7dw0hhy7.cloudfront.net/annie-helms/new_english/F5_dur4,415,20,OK,ponDISS,788.0,ult,F5_dur4,5.0,3.0,4.0,2.0,0.0,1.0,mono,,
263d9dba414ca4,ywm017,2,2,4,https://d3uxfe7dw0hhy7.cloudfront.net/annie-helms/new_english/F1_st4,425,20,OK,PONdiss,741.0,pen,F1_st4,1.0,4.0,3.0,-2.0,1.0,0.0,mono,,
263d9dba414ca4,ywm017,2,2,5,https://d3uxfe7dw0hhy7.cloudfront.net/annie-helms/new_english/F5_st4,422,20,OK,ponDISS,661.0,ult,F5_st4,5.0,4.0,3.0,2.0,1.0,0.0,mono,,
263d9dba414ca4,ywm017,2,2,6,https://d3uxfe7dw0hhy7.cloudfront.net/annie-helms/new_english/st1_dur1,478,20,OK,PONdiss,705.0,pen,st1_dur1,3.0,1.0,1.0,0.0,-2.0,-2.0,mono,,
263d9dba414ca4,ywm017,2,2,7,https://d3uxfe7dw0hhy7.cloudfront.net/annie-helms/new_english/st3_dur4,411,20,OK,ponDISS,772.0,ult,st3_dur4,3.0,3.0,4.0,0.0,0.0,1.0,mono,,
263d9dba414ca4,ywm017,2,2,8,https://d3uxfe7dw0hhy7.cloudfront.net/annie-helms/new_english/st4_dur2,456,15,OK,ponDISS,721.0,ult,st4_dur2,3.0,4.0,2.0,0.0,1.0,-1.0,mono,,
263d9dba414ca4,ywm017,2,2,9,https://d3uxfe7dw0hhy7.cloudfront.net/annie-helms/new_english/st2_dur2,456,25,OK,ponDISS,674.0,ult,st2_dur2,3.0,2.0,2.0,0.0,-1.0,-1.0,mono,,
263d9dba414ca4,ywm017,2,2,10,https://d3uxfe7dw0hhy7.cloudfront.net/annie-helms/new_english/F2_dur3,453,15,OK,ponDISS,742.0,ult,F2_dur3,2.0,3.0,3.0,-1.0,0.0,0.0,mono,,
263d9dba414ca4,ywm017,2,2,11,https://d3uxfe7dw0hhy7.cloudfront.net/annie-helms/new_english/F5_st1,422,20,OK,ponDISS,689.0,ult,F5_st1,5.0,1.0,3.0,2.0,-2.0,0.0,mono,,
263d9dba414ca4,ywm017,2,2,12,https://d3uxfe7dw0hhy7.cloudfront.net/annie-helms/new_english/st1_dur2,456,25,OK,PONdiss,763.0,pen,st1_dur2,3.0,1.0,2.0,0.0,-2.0,-1.0,mono,,
263d9dba414ca4,ywm017,2,2,13,https://d3uxfe7dw0hhy7.cloudfront.net/annie-helms/new_english/F3_st3,418,20,OK,PONdiss,613.0,pen,F3_st3,3.0,3.0,3.0,0.0,0.0,0.0,mono,,
263d9dba414ca4,ywm017,2,2,14,https://d3uxfe7dw0hhy7.cloudfront.net/annie-helms/new_english/F1_st2,425,20,OK,PONdiss,631.0,pen,F1_st2,1.0,2.0,3.0,-2.0,-1.0,0.0,mono,,
263d9dba414ca4,ywm017,2,2,15,https://d3uxfe7dw0hhy7.cloudfront.net/annie-helms/new_english/st2_dur5,389,20,OK,ponDISS,753.0,ult,st2_dur5,3.0,2.0,5.0,0.0,-1.0,2.0,mono,,
263d9dba414ca4,ywm017,2,2,16,https://d3uxfe7dw0hhy7.cloudfront.net/annie-helms/new_english/st1_dur5,389,25,OK,ponDISS,707.0,ult,st1_dur5,3.0,1.0,5.0,0.0,-2.0,2.0,mono,,
263d9dba414ca4,ywm017,2,2,17,https://d3uxfe7dw0hhy7.cloudfront.net/annie-helms/new_english/st4_dur5,389,20,OK,ponDISS,708.0,ult,st4_dur5,3.0,4.0,5.0,0.0,1.0,2.0,mono,,
263d9dba414ca4,ywm017,2,2,18,https://d3uxfe7dw0hhy7.cloudfront.net/annie-helms/new_english/st2_dur3,434,20,OK,PONdiss,727.0,pen,st2_dur3,3.0,2.0,3.0,0.0,-1.0,0.0,mono,,
263d9dba414ca4,ywm017,2,2,19,https://d3uxfe7dw0hhy7.cloudfront.net/annie-helms/new_english/F5_st5,422,20,OK,ponDISS,843.0,ult,F5_st5,5.0,5.0,3.0,2.0,2.0,0.0,mono,,
263d9dba414ca4,ywm017,2,2,20,https://d3uxfe7dw0hhy7.cloudfront.net/annie-helms/new_english/st5_dur3,434,20,OK,ponDISS,816.0,ult,st5_dur3,3.0,5.0,3.0,0.0,2.0,0.0,mono,,
263d9dba414ca4,ywm017,2,2,21,https://d3uxfe7dw0hhy7.cloudfront.net/annie-helms/new_english/F5_dur1,482,20,OK,ponDISS,722.0,ult,F5_dur1,5.0,3.0,1.0,2.0,0.0,-2.0,mono,,
263d9dba414ca4,ywm017,2,2,22,https://d3uxfe7dw0hhy7.cloudfront.net/annie-helms/new_english/st1_dur4,411,20,OK,PONdiss,768.0,pen,st1_dur4,3.0,1.0,4.0,0.0,-2.0,1.0,mono,,
263d9dba414ca4,ywm017,2,2,23,https://d3uxfe7dw0hhy7.cloudfront.net/annie-helms/new_english/F5_dur3,438,20,OK,ponDISS,2149.0,ult,F5_dur3,5.0,3.0,3.0,2.0,0.0,0.0,mono,,
263d9dba414ca4,ywm017,2,2,24,https://d3uxfe7dw0hhy7.cloudfront.net/annie-helms/new_english/F1_dur2,463,20,OK,PONdiss,789.0,pen,F1_dur2,1.0,3.0,2.0,-2.0,0.0,-1.0,mono,,
263d9dba414ca4,ywm017,2,2,25,https://d3uxfe7dw0hhy7.cloudfront.net/annie-helms/new_english/F2_dur2,475,20,OK,PONdiss,597.0,pen,F2_dur2,2.0,3.0,2.0,-1.0,0.0,-1.0,mono,,
263d9dba414ca4,ywm017,2,2,26,https://d3uxfe7dw0hhy7.cloudfront.net/annie-helms/new_english/st4_dur4,411,25,OK,ponDISS,719.0,ult,st4_dur4,3.0,4.0,4.0,0.0,1.0,1.0,mono,,
263d9dba414ca4,ywm017,2,2,27,https://d3uxfe7dw0hhy7.cloudfront.net/annie-helms/new_english/st3_dur5,389,20,OK,ponDISS,692.0,ult,st3_dur5,3.0,3.0,5.0,0.0,0.0,2.0,mono,,
263d9dba414ca4,ywm017,2,2,28,https://d3uxfe7dw0hhy7.cloudfront.net/annie-helms/new_english/F1_st3,425,25,OK,PONdiss,773.0,pen,F1_st3,1.0,3.0,3.0,-2.0,0.0,0.0,mono,,
263d9dba414ca4,ywm017,2,2,29,https://d3uxfe7dw0hhy7.cloudfront.net/annie-helms/new_english/st1_dur3,434,20,OK,PONdiss,707.0,pen,st1_dur3,3.0,1.0,3.0,0.0,-2.0,0.0,mono,,
263d9dba414ca4,ywm017,2,2,30,https://d3uxfe7dw0hhy7.cloudfront.net/annie-helms/new_english/F3_dur1,478,25,OK,PONdiss,677.0,pen,F3_dur1,3.0,3.0,1.0,0.0,0.0,-2.0,mono,,
263d9dba414ca4,ywm017,2,2,31,https://d3uxfe7dw0hhy7.cloudfront.net/annie-helms/new_english/st2_dur4,411,15,OK,PONdiss,611.0,pen,st2_dur4,3.0,2.0,4.0,0.0,-1.0,1.0,mono,,
263d9dba414ca4,ywm017,2,2,32,https://d3uxfe7dw0hhy7.cloudfront.net/annie-helms/new_english/F4_st3,414,15,OK,ponDISS,651.0,ult,F4_st3,4.0,3.0,3.0,1.0,0.0,0.0,mono,,
263d9dba414ca4,ywm017,2,2,33,https://d3uxfe7dw0hhy7.cloudfront.net/annie-helms/new_english/F2_dur1,498,20,OK,PONdiss,736.0,pen,F2_dur1,2.0,3.0,1.0,-1.0,0.0,-2.0,mono,,
263d9dba414ca4,ywm017,2,2,34,https://d3uxfe7dw0hhy7.cloudfront.net/annie-helms/new_english/F3_dur5,389,20,OK,ponDISS,679.0,ult,F3_dur5,3.0,3.0,5.0,0.0,0.0,2.0,mono,,
263d9dba414ca4,ywm017,2,2,35,https://d3uxfe7dw0hhy7.cloudfront.net/annie-helms/new_english/F3_dur3,434,20,OK,ponDISS,645.0,ult,F3_dur3,3.0,3.0,3.0,0.0,0.0,0.0,mono,,
263d9dba414ca4,ywm017,2,2,36,https://d3uxfe7dw0hhy7.cloudfront.net/annie-helms/new_english/F5_dur2,460,20,OK,ponDISS,686.0,ult,F5_dur2,5.0,3.0,2.0,2.0,0.0,-1.0,mono,,
263d9dba414ca4,ywm017,2,2,37,https://d3uxfe7dw0hhy7.cloudfront.net/annie-helms/new_english/F1_dur5,396,25,OK,PONdiss,741.0,pen,F1_dur5,1.0,3.0,5.0,-2.0,0.0,2.0,mono,,
263d9dba414ca4,ywm017,2,2,38,https://d3uxfe7dw0hhy7.cloudfront.net/annie-helms/new_english/F1_dur1,485,25,OK,PONdiss,817.0,pen,F1_dur1,1.0,3.0,1.0,-2.0,0.0,-2.0,mono,,
263d9dba414ca4,ywm017,2,2,39,https://d3uxfe7dw0hhy7.cloudfront.net/annie-helms/new_english/F1_dur4,418,15,OK,PONdiss,713.0,pen,F1_dur4,1.0,3.0,4.0,-2.0,0.0,1.0,mono,,
263d9dba414ca4,ywm017,2,2,40,https://d3uxfe7dw0hhy7.cloudfront.net/annie-helms/new_english/F4_st4,414,25,OK,ponDISS,752.0,ult,F4_st4,4.0,4.0,3.0,1.0,1.0,0.0,mono,,
263d9dba414ca4,ywm017,2,2,41,https://d3uxfe7dw0hhy7.cloudfront.net/annie-helms/new_english/F4_dur5,384,25,OK,ponDISS,844.0,ult,F4_dur5,4.0,3.0,5.0,1.0,0.0,2.0,mono,,
263d9dba414ca4,ywm017,2,2,42,https://d3uxfe7dw0hhy7.cloudfront.net/annie-helms/new_english/F4_dur3,429,20,OK,ponDISS,642.0,ult,F4_dur3,4.0,3.0,3.0,1.0,0.0,0.0,mono,,
263d9dba414ca4,ywm017,2,2,43,https://d3uxfe7dw0hhy7.cloudfront.net/annie-helms/new_english/F2_dur4,431,20,OK,ponDISS,535.0,ult,F2_dur4,2.0,3.0,4.0,-1.0,0.0,1.0,mono,,
263d9dba414ca4,ywm017,2,2,44,https://d3uxfe7dw0hhy7.cloudfront.net/annie-helms/new_english/F4_dur2,451,20,OK,ponDISS,867.0,ult,F4_dur2,4.0,3.0,2.0,1.0,0.0,-1.0,mono,,
263d9dba414ca4,ywm017,2,2,45,https://d3uxfe7dw0hhy7.cloudfront.net/annie-helms/new_english/F5_st3,422,15,OK,ponDISS,702.0,ult,F5_st3,5.0,3.0,3.0,2.0,0.0,0.0,mono,,
263d9dba414ca4,ywm017,2,2,46,https://d3uxfe7dw0hhy7.cloudfront.net/annie-helms/new_english/F1_dur3,441,20,OK,PONdiss,849.0,pen,F1_dur3,1.0,3.0,3.0,-2.0,0.0,0.0,mono,,
263d9dba414ca4,ywm017,2,2,47,https://d3uxfe7dw0hhy7.cloudfront.net/annie-helms/new_english/st3_dur1,478,20,OK,PONdiss,688.0,pen,st3_dur1,3.0,3.0,1.0,0.0,0.0,-2.0,mono,,
263d9dba414ca4,ywm017,2,2,48,https://d3uxfe7dw0hhy7.cloudfront.net/annie-helms/new_english/F3_st4,418,25,OK,ponDISS,797.0,ult,F3_st4,3.0,4.0,3.0,0.0,1.0,0.0,mono,,
263d9dba414ca4,ywm017,2,2,49,https://d3uxfe7dw0hhy7.cloudfront.net/annie-helms/new_english/F3_dur4,411,20,OK,ponDISS,817.0,ult,F3_dur4,3.0,3.0,4.0,0.0,0.0,1.0,mono,,
263d9dba414ca4,ywm017,2,2,50,https://d3uxfe7dw0hhy7.cloudfront.net/annie-helms/new_english/F4_st2,414,20,OK,ponDISS,615.0,ult,F4_st2,4.0,2.0,3.0,1.0,-1.0,0.0,mono,,
263d9dba414ca4,ywm017,2,2,51,https://d3uxfe7dw0hhy7.cloudfront.net/annie-helms/new_english/F5_dur5,393,25,OK,ponDISS,652.0,ult,F5_dur5,5.0,3.0,5.0,2.0,0.0,2.0,mono,,
263d9dba414ca4,ywm017,2,2,52,https://d3uxfe7dw0hhy7.cloudfront.net/annie-helms/new_english/F4_st1,414,20,OK,ponDISS,842.0,ult,F4_st1,4.0,1.0,3.0,1.0,-2.0,0.0,mono,,
263d9dba414ca4,ywm017,2,2,53,https://d3uxfe7dw0hhy7.cloudfront.net/annie-helms/new_english/F1_st5,425,25,OK,PONdiss,726.0,pen,F1_st5,1.0,5.0,3.0,-2.0,2.0,0.0,mono,,
263d9dba414ca4,ywm017,2,2,54,https://d3uxfe7dw0hhy7.cloudfront.net/annie-helms/new_english/st2_dur1,478,25,OK,PONdiss,703.0,pen,st2_dur1,3.0,2.0,1.0,0.0,-1.0,-2.0,mono,,
263d9dba414ca4,ywm017,2,2,55,https://d3uxfe7dw0hhy7.cloudfront.net/annie-helms/new_english/st4_dur1,478,15,OK,PONdiss,662.0,pen,st4_dur1,3.0,4.0,1.0,0.0,1.0,-2.0,mono,,
263d9dba414ca4,ywm017,2,2,56,https://d3uxfe7dw0hhy7.cloudfront.net/annie-helms/new_english/F2_st2,438,20,OK,PONdiss,582.0,pen,F2_st2,2.0,2.0,3.0,-1.0,-1.0,0.0,mono,,
263d9dba414ca4,ywm017,2,2,57,https://d3uxfe7dw0hhy7.cloudfront.net/annie-helms/new_english/st5_dur2,456,25,OK,PONdiss,582.0,pen,st5_dur2,3.0,5.0,2.0,0.0,2.0,-1.0,mono,,
263d9dba414ca4,ywm017,2,2,58,https://d3uxfe7dw0hhy7.cloudfront.net/annie-helms/new_english/F5_st2,422,15,OK,ponDISS,769.0,ult,F5_st2,5.0,2.0,3.0,2.0,-1.0,0.0,mono,,
263d9dba414ca4,ywm017,2,2,59,https://d3uxfe7dw0hhy7.cloudfront.net/annie-helms/new_english/F3_dur2,456,25,OK,PONdiss,741.0,pen,F3_dur2,3.0,3.0,2.0,0.0,0.0,-1.0,mono,,
263d9dba414ca4,ywm017,2,2,60,https://d3uxfe7dw0hhy7.cloudfront.net/annie-helms/new_english/F3_st2,418,25,OK,PONdiss,1604.0,pen,F3_st2,3.0,2.0,3.0,0.0,-1.0,0.0,mono,,
263d9dba414ca4,ywm017,2,2,61,https://d3uxfe7dw0hhy7.cloudfront.net/annie-helms/new_english/st5_dur4,411,10,OK,ponDISS,701.0,ult,st5_dur4,3.0,5.0,4.0,0.0,2.0,1.0,mono,,
263d9dba414ca4,ywm017,2,2,62,https://d3uxfe7dw0hhy7.cloudfront.net/annie-helms/new_english/F2_st3,438,20,OK,PONdiss,801.0,pen,F2_st3,2.0,3.0,3.0,-1.0,0.0,0.0,mono,,
263d9dba414ca4,ywm017,2,2,63,https://d3uxfe7dw0hhy7.cloudfront.net/annie-helms/new_english/F3_st5,418,20,OK,ponDISS,737.0,ult,F3_st5,3.0,5.0,3.0,0.0,2.0,0.0,mono,,
263d9dba414ca4,ywm017,2,2,64,https://d3uxfe7dw0hhy7.cloudfront.net/annie-helms/new_english/F2_st4,438,20,OK,ponDISS,775.0,ult,F2_st4,2.0,4.0,3.0,-1.0,1.0,0.0,mono,,
263d9dba414ca4,ywm017,2,2,65,https://d3uxfe7dw0hhy7.cloudfront.net/annie-helms/new_english/st4_dur3,434,20,OK,ponDISS,820.0,ult,st4_dur3,3.0,4.0,3.0,0.0,1.0,0.0,mono,,
263d9dba414ca4,ywm017,2,2,66,https://d3uxfe7dw0hhy7.cloudfront.net/annie-helms/new_english/F2_dur5,408,20,OK,PONdiss,846.0,pen,F2_dur5,2.0,3.0,5.0,-1.0,0.0,2.0,mono,,
263d9dba414ca4,ywm017,2,2,67,https://d3uxfe7dw0hhy7.cloudfront.net/annie-helms/new_english/F2_st1,438,20,OK,PONdiss,886.0,pen,F2_st1,2.0,1.0,3.0,-1.0,-2.0,0.0,mono,,
263d9dba414ca4,ywm017,2,2,68,https://d3uxfe7dw0hhy7.cloudfront.net/annie-helms/new_english/st3_dur2,456,20,OK,PONdiss,703.0,pen,st3_dur2,3.0,3.0,2.0,0.0,0.0,-1.0,mono,,
263d9dba414ca4,ywm017,2,2,69,https://d3uxfe7dw0hhy7.cloudfront.net/annie-helms/new_english/F1_st1,425,20,OK,PONdiss,835.0,pen,F1_st1,1.0,1.0,3.0,-2.0,-2.0,0.0,mono,,
263d9dba414ca4,ywm017,2,2,70,https://d3uxfe7dw0hhy7.cloudfront.net/annie-helms/new_english/st5_dur5,389,20,OK,ponDISS,714.0,ult,st5_dur5,3.0,5.0,5.0,0.0,2.0,2.0,mono,,
263d9dba414ca4,ywm017,2,2,71,https://d3uxfe7dw0hhy7.cloudfront.net/annie-helms/new_english/st3_dur3,434,20,OK,ponDISS,662.0,ult,st3_dur3,3.0,3.0,3.0,0.0,0.0,0.0,mono,,
263d9dba414ca4,ywm017,2,2,72,https://d3uxfe7dw0hhy7.cloudfront.net/annie-helms/new_english/st5_dur1,478,20,OK,PONdiss,764.0,pen,st5_dur1,3.0,5.0,1.0,0.0,2.0,-2.0,mono,,
263d9dba414ca4,ywm017,2,2,73,https://d3uxfe7dw0hhy7.cloudfront.net/annie-helms/new_english/F4_dur1,474,20,OK,PONdiss,812.0,pen,F4_dur1,4.0,3.0,1.0,1.0,0.0,-2.0,mono,,
263d9dba414ca4,ywm017,2,2,74,https://d3uxfe7dw0hhy7.cloudfront.net/annie-helms/new_english/F3_st1,418,25,OK,PONdiss,770.0,pen,F3_st1,3.0,1.0,3.0,0.0,-2.0,0.0,mono,,
263e2f53c11129,mae116,2,1,0,https://d3uxfe7dw0hhy7.cloudfront.net/annie-helms/new_english/F1_st3,425,30,OK,PONdiss,1811.0,pen,F1_st3,1.0,3.0,3.0,-2.0,0.0,0.0,mono,,
263e2f53c11129,mae116,2,1,1,https://d3uxfe7dw0hhy7.cloudfront.net/annie-helms/new_english/F3_dur1,478,25,OK,PONdiss,1227.0,pen,F3_dur1,3.0,3.0,1.0,0.0,0.0,-2.0,mono,,
263e2f53c11129,mae116,2,1,2,https://d3uxfe7dw0hhy7.cloudfront.net/annie-helms/new_english/st3_dur1,478,30,OK,PONdiss,615.0,pen,st3_dur1,3.0,3.0,1.0,0.0,0.0,-2.0,mono,,
263e2f53c11129,mae116,2,1,4,https://d3uxfe7dw0hhy7.cloudfront.net/annie-helms/new_english/st5_dur3,434,15,OK,ponDISS,899.0,ult,st5_dur3,3.0,5.0,3.0,0.0,2.0,0.0,mono,,
263e2f53c11129,mae116,2,1,5,https://d3uxfe7dw0hhy7.cloudfront.net/annie-helms/new_english/F3_dur4,411,25,OK,ponDISS,686.0,ult,F3_dur4,3.0,3.0,4.0,0.0,0.0,1.0,mono,,
263e2f53c11129,mae116,2,1,6,https://d3uxfe7dw0hhy7.cloudfront.net/annie-helms/new_english/F5_st1,422,15,OK,ponDISS,664.0,ult,F5_st1,5.0,1.0,3.0,2.0,-2.0,0.0,mono,,
263e2f53c11129,mae116,2,1,7,https://d3uxfe7dw0hhy7.cloudfront.net/annie-helms/new_english/F4_st4,414,40,OK,ponDISS,733.0,ult,F4_st4,4.0,4.0,3.0,1.0,1.0,0.0,mono,,
263e2f53c11129,mae116,2,1,8,https://d3uxfe7dw0hhy7.cloudfront.net/annie-helms/new_english/st3_dur2,456,15,OK,ponDISS,686.0,ult,st3_dur2,3.0,3.0,2.0,0.0,0.0,-1.0,mono,,
263e2f53c11129,mae116,2,1,9,https://d3uxfe7dw0hhy7.cloudfront.net/annie-helms/new_english/F1_st5,425,20,OK,ponDISS,879.0,ult,F1_st5,1.0,5.0,3.0,-2.0,2.0,0.0,mono,,
263e2f53c11129,mae116,2,1,10,https://d3uxfe7dw0hhy7.cloudfront.net/annie-helms/new_english/F3_dur3,434,35,OK,ponDISS,910.0,ult,F3_dur3,3.0,3.0,3.0,0.0,0.0,0.0,mono,,
263e2f53c11129,mae116,2,1,11,https://d3uxfe7dw0hhy7.cloudfront.net/annie-helms/new_english/F4_dur4,407,15,OK,ponDISS,906.0,ult,F4_dur4,4.0,3.0,4.0,1.0,0.0,1.0,mono,,
263e2f53c11129,mae116,2,1,12,https://d3uxfe7dw0hhy7.cloudfront.net/annie-helms/new_english/st5_dur1,478,15,OK,ponDISS,943.0,ult,st5_dur1,3.0,5.0,1.0,0.0,2.0,-2.0,mono,,
263e2f53c11129,mae116,2,1,13,https://d3uxfe7dw0hhy7.cloudfront.net/annie-helms/new_english/st4_dur3,434,20,OK,ponDISS,753.0,ult,st4_dur3,3.0,4.0,3.0,0.0,1.0,0.0,mono,,
263e2f53c11129,mae116,2,1,14,https://d3uxfe7dw0hhy7.cloudfront.net/annie-helms/new_english/st3_dur3,434,45,OK,ponDISS,656.0,ult,st3_dur3,3.0,3.0,3.0,0.0,0.0,0.0,mono,,
263e2f53c11129,mae116,2,1,15,https://d3uxfe7dw0hhy7.cloudfront.net/annie-helms/new_english/st1_dur5,389,35,OK,PONdiss,770.0,pen,st1_dur5,3.0,1.0,5.0,0.0,-2.0,2.0,mono,,
263e2f53c11129,mae116,2,1,16,https://d3uxfe7dw0hhy7.cloudfront.net/annie-helms/new_english/F2_st4,438,15,OK,PONdiss,633.0,pen,F2_st4,2.0,4.0,3.0,-1.0,1.0,0.0,mono,,
