SubjID,partID,block,trial,file1,filedur,loadtime,status,response,rt
162f3e1760bfcb,1,1,sounds/type_60,568,45,OK,unknown,293139
162f3e1760bfcb,1,2,sounds/type_0,569,50,OK,dype,1964
162f3e1760bfcb,1,3,sounds/type_80,569,35,OK,type,1476
162f3e1760bfcb,1,4,sounds/type_40,570,0,OK,type,1354
162f3fe4878430,1,0,sounds/type_40,570,30,unallowed_response,type,4244
162f3fe4878430,1,1,sounds/type_60,568,25,OK,type,1063
162f3fe4878430,1,2,sounds/type_20,569,30,OK,dype,784
162f3fe4878430,1,3,sounds/type_80,569,5,OK,type,531
162f3fe4878430,1,4,sounds/type_0,569,20,OK,dype,494
162f4083b861a0,1,0,sounds/type_80,569,20,OK,type,2655
162f4083b861a0,1,1,sounds/type_40,570,20,OK,dype,1369
162f4083b861a0,1,2,sounds/type_0,569,30,OK,dype,970
162f4083b861a0,1,3,sounds/type_20,569,15,OK,dype,1916
162f4083b861a0,1,4,sounds/type_60,568,15,OK,type,1532
162f7f388c7416,1,0,sounds/type_20,569,65,OK,dype,1039
162f7f388c7416,1,1,sounds/type_40,570,35,OK,type,689
162f7f388c7416,1,2,sounds/type_80,569,135,incorrect_response,dype,686
162f7f388c7416,1,3,sounds/type_0,569,15,incorrect_response,type,668
162f7f42390efb,1,0,sounds/type_60,568,0,OK,type,708
162f7f42390efb,1,1,sounds/type_40,570,15,OK,dype,597
162f7f42390efb,1,2,sounds/type_0,569,20,incorrect_response,type,458
162f7f42390efb,1,3,sounds/type_80,569,20,incorrect_response,dype,535
162f7f42390efb,1,4,sounds/type_20,569,20,OK,type,473
162f7f7ca5ef6f,1,0,sounds/type_60,568,20,OK,dype,1702
162f7f7ca5ef6f,1,1,sounds/type_0,569,20,incorrect_response,type,611
162f7f7ca5ef6f,1,2,sounds/type_80,569,20,incorrect_response,dype,84839
162f9d1f46d7d8,1,0,sounds/type_60,568,45,OK,dype,2524
162f9d1f46d7d8,1,1,sounds/type_80,569,50,OK,type,909
162f9d1f46d7d8,1,2,sounds/type_0,569,20,incorrect_response,type,668
162f9d1f46d7d8,1,3,sounds/type_20,569,40,OK,dype,834
162f9d1f46d7d8,1,4,sounds/type_40,570,30,OK,dype,884
16303f8dd40d2c,1,0,sounds/type_60,568,25,OK,dype,1413
16303f8dd40d2c,1,1,sounds/type_0,569,10,OK,dype,2909
16303f8dd40d2c,1,2,sounds/type_20,569,15,OK,type,1579
16303f8dd40d2c,1,3,sounds/type_80,569,10,OK,type,815
16303f8dd40d2c,1,4,sounds/type_40,570,20,OK,dype,1738
1635708843c45d,0,1,0,sounds/type_80,569,30,slow_response,type,5400
1635708843c45d,0,1,1,sounds/type_40,570,20,OK,dype,1333
1635708843c45d,0,1,2,sounds/type_60,568,20,OK,type,693
1635708843c45d,0,1,3,sounds/type_0,569,25,OK,dype,388
1635708843c45d,0,1,4,sounds/type_20,569,20,OK,type,382
163581402c09ec,0,1,0,sounds/type_80,569,5,OK,type,2024
163581410c8a99,0,1,0,sounds/type_80,569,0,OK,type,2138
1635814f58c7df,0,1,0,sounds/type_60,568,40,OK,type,1287
163581676e8edb,0,1,0,sounds/type_80,569,10,incorrect_response,dype,901
163581676e8edb,0,1,1,sounds/type_0,569,5,incorrect_response,type,2313
1635825399e039,0,1,0,sounds/type_40,570,10,OK,type,1736
1635825399e039,0,1,1,sounds/type_60,568,5,slow_response,dype,5093
1635825399e039,0,1,2,sounds/type_80,569,5,incorrect_response,dype,1663
1635825399e039,0,1,3,sounds/type_0,569,5,incorrect_response,type,873
1635825399e039,0,1,4,sounds/type_20,569,5,OK,dype,940
16359ad7a8599e,0,1,illegal_key,0,sounds/type_20,569,220,OK,dype,2716
16359ad7a8599e,0,1,illegal_key,1,sounds/type_40,570,60,OK,dype,998
16359ad7a8599e,0,1,illegal_key,2,sounds/type_80,569,85,OK,type,1300
16359ad7a8599e,0,1,illegal_key,3,sounds/type_0,569,55,OK,dype,829
16359ad7a8599e,0,1,illegal_key,4,sounds/type_60,568,60,OK,type,927
16359b045b8b46,0,1,illegal_key,0,sounds/type_40,570,20,OK,dype,1537
16359b045b8b46,0,1,illegal_key,1,sounds/type_60,568,15,OK,type,871
16359b045b8b46,0,1,illegal_key,2,sounds/type_80,569,15,OK,type,828
16359b045b8b46,0,1,illegal_key,3,sounds/type_0,569,20,OK,dype,895
16359b045b8b46,0,1,illegal_key,4,sounds/type_20,569,20,OK,type,958
16359b045b8b46,0,1,illegal_key,0,sounds/type_20,569,15,OK,dype,1321
16359b045b8b46,0,1,illegal_key,1,sounds/type_80,569,20,OK,type,686
16359b045b8b46,0,1,illegal_key,2,sounds/type_0,569,10,OK,dype,644
16359b045b8b46,0,1,illegal_key,3,sounds/type_40,570,15,OK,type,877
16359b045b8b46,0,1,illegal_key,4,sounds/type_60,568,10,OK,type,739
16359b045b8b46,0,1,illegal_key,0,sounds/type_20,569,240,OK,dype,2224
16359b045b8b46,0,1,illegal_key,1,sounds/type_40,570,20,OK,type,740
16359b045b8b46,0,1,illegal_key,2,sounds/type_80,569,20,OK,type,713
16359b045b8b46,0,1,illegal_key,3,sounds/type_0,569,20,OK,dype,661
16359b045b8b46,0,1,illegal_key,4,sounds/type_60,568,20,OK,type,742
16359b045b8b46,0,1,illegal_key,0,sounds/type_80,569,220,OK,type,1319
16359b045b8b46,0,1,illegal_key,1,sounds/type_60,568,20,OK,type,840
16359b045b8b46,0,1,illegal_key,2,sounds/type_0,569,20,OK,dype,593
16359b045b8b46,0,1,illegal_key,3,sounds/type_40,570,20,OK,type,633
16359b045b8b46,0,1,illegal_key,4,sounds/type_20,569,15,OK,dype,536
16359b045b8b46,0,1,illegal_key,0,sounds/type_60,568,10,OK,type,1659
16359b045b8b46,0,1,illegal_key,1,sounds/type_40,570,20,OK,dype,926
16359b045b8b46,0,1,illegal_key,2,sounds/type_0,569,15,OK,dype,673
16359b045b8b46,0,1,illegal_key,3,sounds/type_80,569,15,OK,type,866
16359b045b8b46,0,1,illegal_key,4,sounds/type_20,569,15,OK,dype,961
16359b045b8b46,0,1,illegal_key,0,sounds/type_80,569,215,OK,type,1735
16359b045b8b46,0,1,illegal_key,1,sounds/type_40,570,25,OK,type,995
16359b045b8b46,0,1,illegal_key,2,sounds/type_60,568,20,OK,type,766
16359b045b8b46,0,1,illegal_key,3,sounds/type_0,569,20,OK,dype,551
16359b045b8b46,0,1,illegal_key,4,sounds/type_20,569,25,OK,dype,724
16359bb43c36df,0,1,illegal_key,0,sounds/type_60,568,350,OK,type,1128
16359bb43c36df,0,1,illegal_key,1,sounds/type_80,569,10,OK,type,666
16359bb43c36df,0,1,illegal_key,2,sounds/type_0,569,295,OK,dype,737
16359bb43c36df,0,1,illegal_key,3,sounds/type_20,569,295,OK,dype,801
16359bb43c36df,0,1,illegal_key,4,sounds/type_40,570,275,OK,type,983
16359bb43c36df,0,1,illegal_key,0,sounds/type_20,569,15,OK,dype,1055
16359bb43c36df,0,1,illegal_key,1,sounds/type_60,568,25,OK,type,781
16359bb43c36df,0,1,illegal_key,2,sounds/type_80,569,20,OK,type,1238
16359bb43c36df,0,1,illegal_key,3,sounds/type_40,570,20,OK,dype,1062
16359bb43c36df,0,1,illegal_key,4,sounds/type_0,569,20,OK,dype,922
16359bb43c36df,0,1,illegal_key,0,sounds/type_20,569,15,OK,type,1461
16359bb43c36df,0,1,illegal_key,1,sounds/type_80,569,15,OK,type,788
16359bb43c36df,0,1,illegal_key,2,sounds/type_60,568,10,OK,type,756
16359bb43c36df,0,1,illegal_key,3,sounds/type_0,569,15,OK,dype,668
16359bb43c36df,0,1,illegal_key,4,sounds/type_40,570,10,OK,type,839
16359bbfaf2f3a,0,1,illegal_key,0,sounds/type_40,570,190,OK,type,1276
16359bbfaf2f3a,0,1,illegal_key,1,sounds/type_60,568,20,OK,type,598
16359bbfaf2f3a,0,1,illegal_key,2,sounds/type_80,569,15,OK,type,726
16359bbfaf2f3a,0,1,illegal_key,3,sounds/type_0,569,15,OK,dype,727
16359bbfaf2f3a,0,1,illegal_key,4,sounds/type_20,569,20,OK,type,854
16359bbfaf2f3a,0,1,illegal_key,0,sounds/type_60,568,15,OK,type,1049
16359bbfaf2f3a,0,1,illegal_key,1,sounds/type_0,569,10,OK,dype,706
16359bbfaf2f3a,0,1,illegal_key,2,sounds/type_20,569,15,OK,dype,948
16359bbfaf2f3a,0,1,illegal_key,3,sounds/type_80,569,20,OK,type,784
16359bbfaf2f3a,0,1,illegal_key,4,sounds/type_40,570,10,OK,type,1307
16359bbfaf2f3a,0,1,illegal_key,0,sounds/type_80,569,20,OK,type,1201
16359bbfaf2f3a,0,1,illegal_key,1,sounds/type_40,570,20,OK,type,835
16359bbfaf2f3a,0,1,illegal_key,2,sounds/type_60,568,20,OK,type,714
16359bbfaf2f3a,0,1,illegal_key,3,sounds/type_0,569,15,OK,dype,765
16359bbfaf2f3a,0,1,illegal_key,4,sounds/type_20,569,20,OK,type,981
16359c08398bb4,0,1,illegal_key,0,sounds/type_60,568,205,OK,dype,1576
16359c08398bb4,0,1,illegal_key,1,sounds/type_80,569,20,OK,type,813
16359c08398bb4,0,1,illegal_key,2,sounds/type_20,569,15,OK,dype,694
16359c08398bb4,0,1,illegal_key,3,sounds/type_40,570,15,OK,type,1002
16359c08398bb4,0,1,illegal_key,4,sounds/type_0,569,25,OK,dype,882
16359c08398bb4,0,1,illegal_key,0,sounds/type_80,569,15,OK,type,1201
16359c08398bb4,0,1,illegal_key,1,sounds/type_0,569,15,OK,dype,744
16359c08398bb4,0,1,illegal_key,2,sounds/type_60,568,15,OK,type,778
16359c08398bb4,0,1,illegal_key,3,sounds/type_20,569,15,OK,dype,719
16359c08398bb4,0,1,illegal_key,4,sounds/type_40,570,15,OK,type,848
16359c08398bb4,0,1,illegal_key,0,sounds/type_40,570,20,OK,type,1218
16359c08398bb4,0,1,illegal_key,1,sounds/type_0,569,15,OK,dype,591
16359c08398bb4,0,1,illegal_key,2,sounds/type_80,569,20,OK,type,924
16359c08398bb4,0,1,illegal_key,3,sounds/type_20,569,20,OK,type,841
16359c08398bb4,0,1,illegal_key,4,sounds/type_60,568,20,OK,type,653
16359d60f64c78,0,1,illegal_key,0,sounds/type_20,569,475,OK,type,3162
1635c12bca9f3e,0,1,illegal_key,0,sounds/type_80,569,195,OK,type,2340
1635c12bca9f3e,0,1,illegal_key,1,sounds/type_0,569,35,OK,dype,1885
1635c12bca9f3e,0,1,illegal_key,2,sounds/type_60,568,30,OK,type,1812
1635c12bca9f3e,0,1,illegal_key,3,sounds/type_20,569,35,OK,dype,2059
1635c12bca9f3e,0,1,illegal_key,4,sounds/type_40,570,30,OK,type,4114
1636035822df62,0,1,illegal_key,0,sounds/type_40,570,205,OK,dype,2233
163603aef77c4f,bad_value,1,illegal_key,0,https://d3uxfe7dw0hhy7.cloudfront.net/annie-helms/span_perception_stimuli/F5_dur3,401,580,OK,pondis,1681
163603aef77c4f,bad_value,1,illegal_key,1,https://d3uxfe7dw0hhy7.cloudfront.net/annie-helms/span_perception_stimuli/st6_dur4,413,250,OK,pondis,817
163603aef77c4f,bad_value,1,illegal_key,2,https://d3uxfe7dw0hhy7.cloudfront.net/annie-helms/span_perception_stimuli/st1_dur5,418,540,OK,pondis,798
163603aef77c4f,bad_value,1,illegal_key,3,https://d3uxfe7dw0hhy7.cloudfront.net/annie-helms/span_perception_stimuli/F3_st4,398,1570,OK,pondís,1192
163603aef77c4f,bad_value,1,illegal_key,4,https://d3uxfe7dw0hhy7.cloudfront.net/annie-helms/span_perception_stimuli/st3_dur5,418,960,OK,pondis,813
163603aef77c4f,bad_value,1,illegal_key,5,https://d3uxfe7dw0hhy7.cloudfront.net/annie-helms/span_perception_stimuli/F4_dur4,406,165,OK,pondis,884
163603aef77c4f,bad_value,1,illegal_key,6,https://d3uxfe7dw0hhy7.cloudfront.net/annie-helms/span_perception_stimuli/F3_st3,398,230,OK,pondis,754
163603aef77c4f,bad_value,1,illegal_key,7,https://d3uxfe7dw0hhy7.cloudfront.net/annie-helms/span_perception_stimuli/F3_st1,398,255,OK,pondís,857
163603aef77c4f,bad_value,1,illegal_key,8,https://d3uxfe7dw0hhy7.cloudfront.net/annie-helms/span_perception_stimuli/F1_dur2,397,95,OK,pondís,685
163603aef77c4f,bad_value,1,illegal_key,9,https://d3uxfe7dw0hhy7.cloudfront.net/annie-helms/span_perception_stimuli/st3_dur6,414,250,OK,pondis,1232
163603aef77c4f,bad_value,1,illegal_key,10,https://d3uxfe7dw0hhy7.cloudfront.net/annie-helms/span_perception_stimuli/F6_dur1,387,235,OK,pondís,798
163603aef77c4f,bad_value,1,illegal_key,11,https://d3uxfe7dw0hhy7.cloudfront.net/annie-helms/span_perception_stimuli/F5_st2,400,165,OK,pondís,836
163603aef77c4f,bad_value,1,illegal_key,12,https://d3uxfe7dw0hhy7.cloudfront.net/annie-helms/span_perception_stimuli/F2_dur4,406,270,OK,pondis,1044
163603aef77c4f,bad_value,1,illegal_key,13,https://d3uxfe7dw0hhy7.cloudfront.net/annie-helms/span_perception_stimuli/st1_dur4,413,265,OK,pondis,928
163603aef77c4f,bad_value,1,illegal_key,14,https://d3uxfe7dw0hhy7.cloudfront.net/annie-helms/span_perception_stimuli/F4_st4,399,265,OK,pondis,821
163603aef77c4f,bad_value,1,illegal_key,15,https://d3uxfe7dw0hhy7.cloudfront.net/annie-helms/span_perception_stimuli/F4_dur1,393,125,OK,pondís,819
163603aef77c4f,bad_value,1,illegal_key,16,https://d3uxfe7dw0hhy7.cloudfront.net/annie-helms/span_perception_stimuli/st6_dur5,418,280,OK,pondis,1008
163603aef77c4f,bad_value,1,illegal_key,17,https://d3uxfe7dw0hhy7.cloudfront.net/annie-helms/span_perception_stimuli/F3_st5,398,285,OK,pondis,1164
163603aef77c4f,bad_value,1,illegal_key,18,https://d3uxfe7dw0hhy7.cloudfront.net/annie-helms/span_perception_stimuli/F5_st6,400,275,OK,pondis,1178
163603aef77c4f,bad_value,1,illegal_key,19,https://d3uxfe7dw0hhy7.cloudfront.net/annie-helms/span_perception_stimuli/st6_dur6,414,225,OK,pondís,828
163603aef77c4f,bad_value,1,illegal_key,20,https://d3uxfe7dw0hhy7.cloudfront.net/annie-helms/span_perception_stimuli/F6_st1,392,310,OK,pondís,1113
163603aef77c4f,bad_value,1,illegal_key,21,https://d3uxfe7dw0hhy7.cloudfront.net/annie-helms/span_perception_stimuli/F2_dur2,397,300,OK,pondís,975
163603aef77c4f,bad_value,1,illegal_key,22,https://d3uxfe7dw0hhy7.cloudfront.net/annie-helms/span_perception_stimuli/st4_dur3,409,300,OK,pondis,1056
163603aef77c4f,bad_value,1,illegal_key,23,https://d3uxfe7dw0hhy7.cloudfront.net/annie-helms/span_perception_stimuli/st2_dur2,404,310,OK,pondís,762
163603aef77c4f,bad_value,1,illegal_key,24,https://d3uxfe7dw0hhy7.cloudfront.net/annie-helms/span_perception_stimuli/F1_st2,398,115,OK,pondis,1022
163603aef77c4f,bad_value,1,illegal_key,25,https://d3uxfe7dw0hhy7.cloudfront.net/annie-helms/span_perception_stimuli/F5_st4,400,285,OK,pondís,1070
163603aef77c4f,bad_value,1,illegal_key,26,https://d3uxfe7dw0hhy7.cloudfront.net/annie-helms/span_perception_stimuli/st2_dur4,413,125,OK,pondís,1029
163603aef77c4f,bad_value,1,illegal_key,27,https://d3uxfe7dw0hhy7.cloudfront.net/annie-helms/span_perception_stimuli/st3_dur4,413,290,OK,pondís,862
163603aef77c4f,bad_value,1,illegal_key,28,https://d3uxfe7dw0hhy7.cloudfront.net/annie-helms/span_perception_stimuli/st5_dur5,418,280,OK,pondis,1094
163603aef77c4f,bad_value,1,illegal_key,29,https://d3uxfe7dw0hhy7.cloudfront.net/annie-helms/span_perception_stimuli/st2_dur6,414,290,OK,pondís,864
163603aef77c4f,bad_value,1,illegal_key,30,https://d3uxfe7dw0hhy7.cloudfront.net/annie-helms/span_perception_stimuli/st5_dur6,414,295,OK,pondis,1142
163603aef77c4f,bad_value,1,illegal_key,31,https://d3uxfe7dw0hhy7.cloudfront.net/annie-helms/span_perception_stimuli/st1_dur3,409,305,OK,pondís,968
163603aef77c4f,bad_value,1,illegal_key,32,https://d3uxfe7dw0hhy7.cloudfront.net/annie-helms/span_perception_stimuli/F1_dur4,406,280,OK,pondís,1097
163603aef77c4f,bad_value,1,illegal_key,33,https://d3uxfe7dw0hhy7.cloudfront.net/annie-helms/span_perception_stimuli/st3_dur2,404,225,OK,pondís,867
163603aef77c4f,bad_value,1,illegal_key,34,https://d3uxfe7dw0hhy7.cloudfront.net/annie-helms/span_perception_stimuli/F5_dur6,407,305,OK,pondís,768
163603aef77c4f,bad_value,1,illegal_key,35,https://d3uxfe7dw0hhy7.cloudfront.net/annie-helms/span_perception_stimuli/F2_st4,398,1385,OK,pondís,1034
163603aef77c4f,bad_value,1,illegal_key,36,https://d3uxfe7dw0hhy7.cloudfront.net/annie-helms/span_perception_stimuli/F4_st2,399,405,OK,pondís,870
163603aef77c4f,bad_value,1,illegal_key,37,https://d3uxfe7dw0hhy7.cloudfront.net/annie-helms/span_perception_stimuli/F4_st5,399,870,OK,pondís,912
163603aef77c4f,bad_value,1,illegal_key,38,https://d3uxfe7dw0hhy7.cloudfront.net/annie-helms/span_perception_stimuli/st4_dur1,400,845,OK,pondís,747
163603aef77c4f,bad_value,1,illegal_key,39,https://d3uxfe7dw0hhy7.cloudfront.net/annie-helms/span_perception_stimuli/F5_dur2,397,3470,OK,pondís,1503
163603aef77c4f,bad_value,1,illegal_key,40,https://d3uxfe7dw0hhy7.cloudfront.net/annie-helms/span_perception_stimuli/F6_dur2,391,875,OK,pondís,1028
163603aef77c4f,bad_value,1,illegal_key,41,https://d3uxfe7dw0hhy7.cloudfront.net/annie-helms/span_perception_stimuli/st1_dur6,415,285,OK,pondis,1231
163603aef77c4f,bad_value,1,illegal_key,42,https://d3uxfe7dw0hhy7.cloudfront.net/annie-helms/span_perception_stimuli/st2_dur5,418,1815,OK,pondis,1303
163603aef77c4f,bad_value,1,illegal_key,43,https://d3uxfe7dw0hhy7.cloudfront.net/annie-helms/span_perception_stimuli/st4_dur5,418,2640,OK,pondis,1131
163603aef77c4f,bad_value,1,illegal_key,44,https://d3uxfe7dw0hhy7.cloudfront.net/annie-helms/span_perception_stimuli/st2_dur3,408,3125,OK,pondis,927
163603aef77c4f,bad_value,1,illegal_key,45,https://d3uxfe7dw0hhy7.cloudfront.net/annie-helms/span_perception_stimuli/F3_dur1,391,530,OK,pondís,1097
163603aef77c4f,bad_value,1,illegal_key,46,https://d3uxfe7dw0hhy7.cloudfront.net/annie-helms/span_perception_stimuli/F1_dur1,393,510,OK,pondís,1052
163603aef77c4f,bad_value,1,illegal_key,47,https://d3uxfe7dw0hhy7.cloudfront.net/annie-helms/span_perception_stimuli/F3_dur4,404,505,OK,pondís,1041
163603aef77c4f,bad_value,1,illegal_key,48,https://d3uxfe7dw0hhy7.cloudfront.net/annie-helms/span_perception_stimuli/F2_st6,398,1860,OK,pondis,1140
163603aef77c4f,bad_value,1,illegal_key,49,https://d3uxfe7dw0hhy7.cloudfront.net/annie-helms/span_perception_stimuli/F5_st3,400,1390,OK,pondís,1228
163603aef77c4f,bad_value,1,illegal_key,50,https://d3uxfe7dw0hhy7.cloudfront.net/annie-helms/span_perception_stimuli/st5_dur2,404,585,OK,pondis,940
163603aef77c4f,bad_value,1,illegal_key,51,https://d3uxfe7dw0hhy7.cloudfront.net/annie-helms/span_perception_stimuli/F2_st1,398,2765,OK,pondís,2314
163603aef77c4f,bad_value,1,illegal_key,52,https://d3uxfe7dw0hhy7.cloudfront.net/annie-helms/span_perception_stimuli/F3_dur2,395,510,OK,pondís,1190
163603aef77c4f,bad_value,1,illegal_key,53,https://d3uxfe7dw0hhy7.cloudfront.net/annie-helms/span_perception_stimuli/F2_st2,398,1695,OK,pondís,1124
163603aef77c4f,bad_value,1,illegal_key,54,https://d3uxfe7dw0hhy7.cloudfront.net/annie-helms/span_perception_stimuli/F1_st6,398,840,OK,pondís,1224
163603aef77c4f,bad_value,1,illegal_key,55,https://d3uxfe7dw0hhy7.cloudfront.net/annie-helms/span_perception_stimuli/F3_dur3,400,2015,OK,pondís,1266
163603aef77c4f,bad_value,1,illegal_key,56,https://d3uxfe7dw0hhy7.cloudfront.net/annie-helms/span_perception_stimuli/F6_dur5,405,440,OK,pondís,1039
163603aef77c4f,bad_value,1,illegal_key,57,https://d3uxfe7dw0hhy7.cloudfront.net/annie-helms/span_perception_stimuli/F4_dur6,408,2255,OK,pondís,1139
163603aef77c4f,bad_value,1,illegal_key,58,https://d3uxfe7dw0hhy7.cloudfront.net/annie-helms/span_perception_stimuli/F4_dur5,411,1675,OK,pondís,883
163603aef77c4f,bad_value,1,illegal_key,59,https://d3uxfe7dw0hhy7.cloudfront.net/annie-helms/span_perception_stimuli/st1_dur2,404,425,OK,pondis,969
163603aef77c4f,bad_value,1,illegal_key,60,https://d3uxfe7dw0hhy7.cloudfront.net/annie-helms/span_perception_stimuli/F5_st1,400,475,OK,pondis,1011
163603aef77c4f,bad_value,1,illegal_key,61,https://d3uxfe7dw0hhy7.cloudfront.net/annie-helms/span_perception_stimuli/F6_st2,392,470,OK,pondis,815
163603aef77c4f,bad_value,1,illegal_key,62,https://d3uxfe7dw0hhy7.cloudfront.net/annie-helms/span_perception_stimuli/st3_dur3,409,245,OK,pondis,1172
163603aef77c4f,bad_value,1,illegal_key,63,https://d3uxfe7dw0hhy7.cloudfront.net/annie-helms/span_perception_stimuli/F1_st1,393,1425,OK,pondís,1168
163603aef77c4f,bad_value,1,illegal_key,64,https://d3uxfe7dw0hhy7.cloudfront.net/annie-helms/span_perception_stimuli/st4_dur2,404,4280,OK,pondís,1303
163603aef77c4f,bad_value,1,illegal_key,65,https://d3uxfe7dw0hhy7.cloudfront.net/annie-helms/span_perception_stimuli/F4_dur3,402,435,OK,pondís,1022
163603aef77c4f,bad_value,1,illegal_key,66,https://d3uxfe7dw0hhy7.cloudfront.net/annie-helms/span_perception_stimuli/F3_dur5,408,1185,OK,pondis,1060
163603aef77c4f,bad_value,1,illegal_key,67,https://d3uxfe7dw0hhy7.cloudfront.net/annie-helms/span_perception_stimuli/F6_dur3,396,290,OK,pondís,967
163603aef77c4f,bad_value,1,illegal_key,68,https://d3uxfe7dw0hhy7.cloudfront.net/annie-helms/span_perception_stimuli/F1_dur6,407,855,OK,pondís,1207
163603aef77c4f,bad_value,1,illegal_key,69,https://d3uxfe7dw0hhy7.cloudfront.net/annie-helms/span_perception_stimuli/F1_st4,398,460,OK,pondís,1139
163603aef77c4f,bad_value,1,illegal_key,70,https://d3uxfe7dw0hhy7.cloudfront.net/annie-helms/span_perception_stimuli/F2_dur5,411,2195,OK,pondís,902
163603aef77c4f,bad_value,1,illegal_key,71,https://d3uxfe7dw0hhy7.cloudfront.net/annie-helms/span_perception_stimuli/F5_dur5,410,890,OK,pondís,910
163603aef77c4f,bad_value,1,illegal_key,72,https://d3uxfe7dw0hhy7.cloudfront.net/annie-helms/span_perception_stimuli/st4_dur4,413,200,OK,pondís,955
163603aef77c4f,bad_value,1,illegal_key,73,https://d3uxfe7dw0hhy7.cloudfront.net/annie-helms/span_perception_stimuli/F4_st3,399,385,OK,pondís,954
163603aef77c4f,bad_value,1,illegal_key,74,https://d3uxfe7dw0hhy7.cloudfront.net/annie-helms/span_perception_stimuli/F6_st5,392,1290,OK,pondis,1746
163603aef77c4f,bad_value,1,illegal_key,75,https://d3uxfe7dw0hhy7.cloudfront.net/annie-helms/span_perception_stimuli/F6_st6,393,405,OK,pondís,1294
163603aef77c4f,bad_value,1,illegal_key,76,https://d3uxfe7dw0hhy7.cloudfront.net/annie-helms/span_perception_stimuli/F4_st1,399,690,OK,pondís,1361
163603aef77c4f,bad_value,1,illegal_key,77,https://d3uxfe7dw0hhy7.cloudfront.net/annie-helms/span_perception_stimuli/F6_st3,393,420,OK,pondís,1137
163603aef77c4f,bad_value,1,illegal_key,78,https://d3uxfe7dw0hhy7.cloudfront.net/annie-helms/span_perception_stimuli/F6_st4,393,1545,OK,pondis,1387
163603aef77c4f,bad_value,1,illegal_key,79,https://d3uxfe7dw0hhy7.cloudfront.net/annie-helms/span_perception_stimuli/F5_dur4,405,1455,OK,pondis,1191
163603aef77c4f,bad_value,1,illegal_key,80,https://d3uxfe7dw0hhy7.cloudfront.net/annie-helms/span_perception_stimuli/st1_dur1,400,965,OK,pondis,1105
163603aef77c4f,bad_value,1,illegal_key,81,https://d3uxfe7dw0hhy7.cloudfront.net/annie-helms/span_perception_stimuli/F3_dur6,405,1200,OK,pondis,1215
163603aef77c4f,bad_value,1,illegal_key,82,https://d3uxfe7dw0hhy7.cloudfront.net/annie-helms/span_perception_stimuli/F5_st5,400,575,OK,pondis,1181
163603aef77c4f,bad_value,1,illegal_key,83,https://d3uxfe7dw0hhy7.cloudfront.net/annie-helms/span_perception_stimuli/F2_dur1,393,1120,OK,pondís,917
163603aef77c4f,bad_value,1,illegal_key,84,https://d3uxfe7dw0hhy7.cloudfront.net/annie-helms/span_perception_stimuli/F6_dur4,400,475,OK,pondís,1278
163603aef77c4f,bad_value,1,illegal_key,85,https://d3uxfe7dw0hhy7.cloudfront.net/annie-helms/span_perception_stimuli/st5_dur1,400,5140,OK,pondis,1170
163603aef77c4f,bad_value,1,illegal_key,86,https://d3uxfe7dw0hhy7.cloudfront.net/annie-helms/span_perception_stimuli/F4_st6,399,1170,OK,pondis,1180
163603aef77c4f,bad_value,1,illegal_key,87,https://d3uxfe7dw0hhy7.cloudfront.net/annie-helms/span_perception_stimuli/F6_dur6,409,2755,OK,pondís,1278
163603aef77c4f,bad_value,1,illegal_key,88,https://d3uxfe7dw0hhy7.cloudfront.net/annie-helms/span_perception_stimuli/F2_dur3,402,2795,OK,pondis,987
163603aef77c4f,bad_value,1,illegal_key,89,https://d3uxfe7dw0hhy7.cloudfront.net/annie-helms/span_perception_stimuli/st5_dur3,409,1040,OK,pondís,1005
163603aef77c4f,bad_value,1,illegal_key,90,https://d3uxfe7dw0hhy7.cloudfront.net/annie-helms/span_perception_stimuli/st6_dur1,400,495,OK,pondis,1073
163603aef77c4f,bad_value,1,illegal_key,91,https://d3uxfe7dw0hhy7.cloudfront.net/annie-helms/span_perception_stimuli/F5_dur1,392,1920,OK,pondís,1297
163603aef77c4f,bad_value,1,illegal_key,92,https://d3uxfe7dw0hhy7.cloudfront.net/annie-helms/span_perception_stimuli/F1_dur3,402,1810,OK,pondis,891
163603aef77c4f,bad_value,1,illegal_key,93,https://d3uxfe7dw0hhy7.cloudfront.net/annie-helms/span_perception_stimuli/st3_dur1,400,2155,OK,pondís,994
163603aef77c4f,bad_value,1,illegal_key,94,https://d3uxfe7dw0hhy7.cloudfront.net/annie-helms/span_perception_stimuli/F3_st6,398,600,OK,pondis,1108
163603aef77c4f,bad_value,1,illegal_key,95,https://d3uxfe7dw0hhy7.cloudfront.net/annie-helms/span_perception_stimuli/F1_st3,398,3200,OK,pondis,1071
163603aef77c4f,bad_value,1,illegal_key,96,https://d3uxfe7dw0hhy7.cloudfront.net/annie-helms/span_perception_stimuli/st4_dur6,414,400,OK,pondís,1250
163603aef77c4f,bad_value,1,illegal_key,97,https://d3uxfe7dw0hhy7.cloudfront.net/annie-helms/span_perception_stimuli/F2_st5,398,820,OK,pondis,948
163603aef77c4f,bad_value,1,illegal_key,98,https://d3uxfe7dw0hhy7.cloudfront.net/annie-helms/span_perception_stimuli/F4_dur2,398,465,OK,pondís,957
163603aef77c4f,bad_value,1,illegal_key,99,https://d3uxfe7dw0hhy7.cloudfront.net/annie-helms/span_perception_stimuli/st6_dur2,404,545,OK,pondis,1305
163603aef77c4f,bad_value,1,illegal_key,100,https://d3uxfe7dw0hhy7.cloudfront.net/annie-helms/span_perception_stimuli/F1_st5,398,370,OK,pondís,982
163603aef77c4f,bad_value,1,illegal_key,101,https://d3uxfe7dw0hhy7.cloudfront.net/annie-helms/span_perception_stimuli/st2_dur1,400,305,OK,pondis,1243
163603aef77c4f,bad_value,1,illegal_key,102,https://d3uxfe7dw0hhy7.cloudfront.net/annie-helms/span_perception_stimuli/F2_st3,398,1500,OK,pondís,806
163603aef77c4f,bad_value,1,illegal_key,103,https://d3uxfe7dw0hhy7.cloudfront.net/annie-helms/span_perception_stimuli/F1_dur5,410,320,OK,pondís,989
163603aef77c4f,bad_value,1,illegal_key,104,https://d3uxfe7dw0hhy7.cloudfront.net/annie-helms/span_perception_stimuli/st5_dur4,413,530,OK,pondis,1040
163603aef77c4f,bad_value,1,illegal_key,105,https://d3uxfe7dw0hhy7.cloudfront.net/annie-helms/span_perception_stimuli/F2_dur6,407,515,OK,pondís,840
163603aef77c4f,bad_value,1,illegal_key,106,https://d3uxfe7dw0hhy7.cloudfront.net/annie-helms/span_perception_stimuli/st6_dur3,409,170,OK,pondis,859
163603aef77c4f,bad_value,1,illegal_key,107,https://d3uxfe7dw0hhy7.cloudfront.net/annie-helms/span_perception_stimuli/F3_st2,398,1615,OK,pondis,1171
1636d8d932ce70,0,1,illegal_key,0,https://d3uxfe7dw0hhy7.cloudfront.net/annie-helms/span_perception_stimuli/F1_dur4,406,200,OK,COMbine,1708
1636d8db4a27b3,0,1,illegal_key,0,https://d3uxfe7dw0hhy7.cloudfront.net/annie-helms/span_perception_stimuli/F1_dur4,406,15,OK,COMbine,1639
1636d8dc9a46fe,0,1,illegal_key,0,https://d3uxfe7dw0hhy7.cloudfront.net/annie-helms/span_perception_stimuli/F1_dur4,406,15,OK,COMbine,1584
1636d8dd835e9c,0,1,illegal_key,0,https://d3uxfe7dw0hhy7.cloudfront.net/annie-helms/span_perception_stimuli/F1_dur2,397,145,OK,conVERT,1030
1636d8dd835e9c,0,1,illegal_key,1,https://d3uxfe7dw0hhy7.cloudfront.net/annie-helms/span_perception_stimuli/F1_dur1,393,20,OK,CONvict,846
1636d902de8df8,0,1,illegal_key,0,https://d3uxfe7dw0hhy7.cloudfront.net/annie-helms/span_perception_stimuli/F1_dur3,402,190,OK,ponDISS,1571
1636d902de8df8,0,1,illegal_key,1,https://d3uxfe7dw0hhy7.cloudfront.net/annie-helms/span_perception_stimuli/F1_dur1,393,20,OK,ponDISS,737
1636d902de8df8,0,1,illegal_key,2,https://d3uxfe7dw0hhy7.cloudfront.net/annie-helms/span_perception_stimuli/F1_dur4,406,15,OK,PONdiss,678
1636d902de8df8,0,1,illegal_key,3,https://d3uxfe7dw0hhy7.cloudfront.net/annie-helms/span_perception_stimuli/F1_dur5,410,15,OK,PONdiss,724
1636d902de8df8,0,1,illegal_key,4,https://d3uxfe7dw0hhy7.cloudfront.net/annie-helms/span_perception_stimuli/F1_dur2,397,15,OK,PONdiss,673
1636d902de8df8,0,1,illegal_key,0,https://d3uxfe7dw0hhy7.cloudfront.net/annie-helms/span_perception_stimuli/F1_dur5,410,190,unallowed_response,ponDISS,6894
1636d902de8df8,0,1,illegal_key,1,https://d3uxfe7dw0hhy7.cloudfront.net/annie-helms/span_perception_stimuli/F1_dur3,402,20,OK,ponDISS,1243
1636d902de8df8,0,1,illegal_key,2,https://d3uxfe7dw0hhy7.cloudfront.net/annie-helms/span_perception_stimuli/F1_dur1,393,20,OK,ponDISS,1396
1636d902de8df8,0,1,illegal_key,3,https://d3uxfe7dw0hhy7.cloudfront.net/annie-helms/span_perception_stimuli/F1_dur2,397,20,OK,PONdiss,1608
1636d902de8df8,0,1,illegal_key,4,https://d3uxfe7dw0hhy7.cloudfront.net/annie-helms/span_perception_stimuli/F1_dur4,406,20,OK,PONdiss,624
1636d902de8df8,0,1,illegal_key,0,https://d3uxfe7dw0hhy7.cloudfront.net/annie-helms/span_perception_stimuli/F1_dur2,397,265,OK,ponDISS,1426
1636d902de8df8,0,1,illegal_key,1,https://d3uxfe7dw0hhy7.cloudfront.net/annie-helms/span_perception_stimuli/F1_dur5,410,20,OK,ponDISS,744
1636d902de8df8,0,1,illegal_key,2,https://d3uxfe7dw0hhy7.cloudfront.net/annie-helms/span_perception_stimuli/F1_dur1,393,15,OK,PONdiss,615
1636d96a3135c3,bad_value,1,illegal_key,0,https://d3uxfe7dw0hhy7.cloudfront.net/annie-helms/span_perception_stimuli/F1_dur2,397,160,OK,ponDISS,1391
1636d96a3135c3,bad_value,1,illegal_key,1,https://d3uxfe7dw0hhy7.cloudfront.net/annie-helms/span_perception_stimuli/F1_dur3,402,15,OK,ponDISS,670
1636d96c959ecb,bad_value,1,illegal_key,0,https://d3uxfe7dw0hhy7.cloudfront.net/annie-helms/span_perception_stimuli/F1_dur3,402,215,OK,ponDISS,1327
1636d96c959ecb,bad_value,1,illegal_key,1,https://d3uxfe7dw0hhy7.cloudfront.net/annie-helms/span_perception_stimuli/F1_dur5,410,10,OK,PONdiss,639
1636d96c959ecb,bad_value,1,illegal_key,2,https://d3uxfe7dw0hhy7.cloudfront.net/annie-helms/span_perception_stimuli/F1_dur2,397,10,OK,ponDISS,488
1636d96c959ecb,bad_value,1,illegal_key,3,https://d3uxfe7dw0hhy7.cloudfront.net/annie-helms/span_perception_stimuli/F1_dur1,393,20,OK,PONdiss,559
1636d96c959ecb,bad_value,1,illegal_key,4,https://d3uxfe7dw0hhy7.cloudfront.net/annie-helms/span_perception_stimuli/F1_dur4,406,20,OK,ponDISS,625
1636d96c959ecb,bad_value,1,illegal_key,0,https://d3uxfe7dw0hhy7.cloudfront.net/annie-helms/span_perception_stimuli/F1_dur4,406,175,OK,PONdiss,2458
1636d96c959ecb,bad_value,1,illegal_key,1,https://d3uxfe7dw0hhy7.cloudfront.net/annie-helms/span_perception_stimuli/F1_dur1,393,20,OK,PONdiss,961
1636d96c959ecb,bad_value,1,illegal_key,2,https://d3uxfe7dw0hhy7.cloudfront.net/annie-helms/span_perception_stimuli/F1_dur2,397,15,OK,PONdiss,680
1636d96c959ecb,bad_value,1,illegal_key,3,https://d3uxfe7dw0hhy7.cloudfront.net/annie-helms/span_perception_stimuli/F1_dur5,410,20,OK,PONdiss,322
1636d96c959ecb,bad_value,1,illegal_key,4,https://d3uxfe7dw0hhy7.cloudfront.net/annie-helms/span_perception_stimuli/F1_dur3,402,15,OK,PONdiss,311
1636d98081a270,bad_value,1,illegal_key,0,https://d3uxfe7dw0hhy7.cloudfront.net/annie-helms/span_perception_stimuli/F1_dur3,402,175,OK,conTRACT,1412
1636d98081a270,bad_value,1,illegal_key,1,https://d3uxfe7dw0hhy7.cloudfront.net/annie-helms/span_perception_stimuli/F1_dur1,393,20,OK,CONvict,618
1636d98081a270,bad_value,1,illegal_key,2,https://d3uxfe7dw0hhy7.cloudfront.net/annie-helms/span_perception_stimuli/F1_dur4,406,20,OK,COMbine,858
1636d98081a270,bad_value,1,illegal_key,3,https://d3uxfe7dw0hhy7.cloudfront.net/annie-helms/span_perception_stimuli/F1_dur1,393,20,OK,CONvict,875
1636d98081a270,bad_value,1,illegal_key,4,https://d3uxfe7dw0hhy7.cloudfront.net/annie-helms/span_perception_stimuli/F1_dur4,406,15,OK,COMbine,582
1636d98081a270,bad_value,1,illegal_key,5,https://d3uxfe7dw0hhy7.cloudfront.net/annie-helms/span_perception_stimuli/F1_dur3,402,15,OK,CONtract,541
1636d98081a270,bad_value,1,illegal_key,6,https://d3uxfe7dw0hhy7.cloudfront.net/annie-helms/span_perception_stimuli/F1_dur2,397,160,OK,CONvert,590
1636d98081a270,bad_value,1,illegal_key,7,https://d3uxfe7dw0hhy7.cloudfront.net/annie-helms/span_perception_stimuli/F1_dur2,397,10,OK,conVERT,537
1636d98dd3a2e2,bad_value,1,illegal_key,0,https://d3uxfe7dw0hhy7.cloudfront.net/annie-helms/span_perception_stimuli/F1_dur4,406,175,OK,PONdiss,1691
1636d98dd3a2e2,bad_value,1,illegal_key,1,https://d3uxfe7dw0hhy7.cloudfront.net/annie-helms/span_perception_stimuli/F1_dur1,393,20,OK,ponDISS,748
1636d98dd3a2e2,bad_value,1,illegal_key,2,https://d3uxfe7dw0hhy7.cloudfront.net/annie-helms/span_perception_stimuli/F1_dur2,397,15,OK,ponDISS,632
1637675b100bb0,897235,1,illegal_key,0,https://d3uxfe7dw0hhy7.cloudfront.net/annie-helms/span_perception_stimuli/F1_dur1,393,375,OK,conVICT,1327
1637675b100bb0,897235,1,illegal_key,1,https://d3uxfe7dw0hhy7.cloudfront.net/annie-helms/span_perception_stimuli/F1_dur4,406,145,OK,comBINE,430
1637675b100bb0,897235,1,illegal_key,2,https://d3uxfe7dw0hhy7.cloudfront.net/annie-helms/span_perception_stimuli/F1_dur1,393,10,OK,conVICT,875
1637675b100bb0,897235,1,illegal_key,3,https://d3uxfe7dw0hhy7.cloudfront.net/annie-helms/span_perception_stimuli/F1_dur4,406,15,OK,comBINE,866
1637675b100bb0,897235,1,illegal_key,4,https://d3uxfe7dw0hhy7.cloudfront.net/annie-helms/span_perception_stimuli/F1_dur2,397,155,OK,CONvert,352
1637675b100bb0,897235,1,illegal_key,5,https://d3uxfe7dw0hhy7.cloudfront.net/annie-helms/span_perception_stimuli/F1_dur3,402,355,early_response,CONtract,1269
1637675b100bb0,897235,1,illegal_key,6,https://d3uxfe7dw0hhy7.cloudfront.net/annie-helms/span_perception_stimuli/F1_dur3,402,20,OK,conTRACT,988
1637675b100bb0,897235,1,illegal_key,7,https://d3uxfe7dw0hhy7.cloudfront.net/annie-helms/span_perception_stimuli/F1_dur2,397,10,OK,conVERT,1105
1637676f0bd413,897235,1,illegal_key,0,https://d3uxfe7dw0hhy7.cloudfront.net/annie-helms/span_perception_stimuli/F1_dur2,397,295,OK,CONvert,1938
1637676f0bd413,897235,1,illegal_key,1,https://d3uxfe7dw0hhy7.cloudfront.net/annie-helms/span_perception_stimuli/F1_dur3,402,15,OK,CONtract,1289
1637676f0bd413,897235,1,illegal_key,2,https://d3uxfe7dw0hhy7.cloudfront.net/annie-helms/span_perception_stimuli/F1_dur2,397,15,OK,conVERT,1108
1637676f0bd413,897235,1,illegal_key,3,https://d3uxfe7dw0hhy7.cloudfront.net/annie-helms/span_perception_stimuli/F1_dur4,406,25,OK,COMbine,924
1637676f0bd413,897235,1,illegal_key,4,https://d3uxfe7dw0hhy7.cloudfront.net/annie-helms/span_perception_stimuli/F1_dur1,393,25,OK,CONvict,1155
1637676f0bd413,897235,1,illegal_key,5,https://d3uxfe7dw0hhy7.cloudfront.net/annie-helms/span_perception_stimuli/F1_dur4,406,15,OK,COMbine,975
1637676f0bd413,897235,1,illegal_key,6,https://d3uxfe7dw0hhy7.cloudfront.net/annie-helms/span_perception_stimuli/F1_dur3,402,15,OK,conTRACT,958
1637676f0bd413,897235,1,illegal_key,7,https://d3uxfe7dw0hhy7.cloudfront.net/annie-helms/span_perception_stimuli/F1_dur1,393,15,OK,CONvict,1058
16376775ddea90,897235,1,illegal_key,0,https://d3uxfe7dw0hhy7.cloudfront.net/annie-helms/span_perception_stimuli/F1_dur2,397,130,OK,CONvert,1600
16376775ddea90,897235,1,illegal_key,1,https://d3uxfe7dw0hhy7.cloudfront.net/annie-helms/span_perception_stimuli/F1_dur3,402,20,OK,CONtract,1021
16376775ddea90,897235,1,illegal_key,2,https://d3uxfe7dw0hhy7.cloudfront.net/annie-helms/span_perception_stimuli/F1_dur4,406,20,OK,COMbine,1224
16376775ddea90,897235,1,illegal_key,3,https://d3uxfe7dw0hhy7.cloudfront.net/annie-helms/span_perception_stimuli/F1_dur1,393,20,OK,CONvict,953
16376775ddea90,897235,1,illegal_key,4,https://d3uxfe7dw0hhy7.cloudfront.net/annie-helms/span_perception_stimuli/F1_dur2,397,15,OK,CONvert,920
16376775ddea90,897235,1,illegal_key,5,https://d3uxfe7dw0hhy7.cloudfront.net/annie-helms/span_perception_stimuli/F1_dur3,402,15,OK,CONtract,1022
16376775ddea90,897235,1,illegal_key,6,https://d3uxfe7dw0hhy7.cloudfront.net/annie-helms/span_perception_stimuli/F1_dur1,393,15,OK,CONvict,964
16376775ddea90,897235,1,illegal_key,7,https://d3uxfe7dw0hhy7.cloudfront.net/annie-helms/span_perception_stimuli/F1_dur4,406,15,OK,COMbine,995
16376775ddea90,897235,1,illegal_key,0,https://d3uxfe7dw0hhy7.cloudfront.net/annie-helms/span_perception_stimuli/F1_dur5,410,230,OK,ponDISS,1280
16376775ddea90,897235,1,illegal_key,1,https://d3uxfe7dw0hhy7.cloudfront.net/annie-helms/span_perception_stimuli/F1_dur1,393,15,OK,PONdiss,1033
16376775ddea90,897235,1,illegal_key,2,https://d3uxfe7dw0hhy7.cloudfront.net/annie-helms/span_perception_stimuli/F1_dur2,397,15,OK,ponDISS,1066
16376775ddea90,897235,1,illegal_key,3,https://d3uxfe7dw0hhy7.cloudfront.net/annie-helms/span_perception_stimuli/F1_dur3,402,20,OK,PONdiss,1136
16376775ddea90,897235,1,illegal_key,4,https://d3uxfe7dw0hhy7.cloudfront.net/annie-helms/span_perception_stimuli/F1_dur4,406,20,OK,ponDISS,940
16376775ddea90,897235,1,illegal_key,0,https://d3uxfe7dw0hhy7.cloudfront.net/annie-helms/span_perception_stimuli/F1_dur5,410,15,OK,ponDISS,1329
16376775ddea90,897235,1,illegal_key,1,https://d3uxfe7dw0hhy7.cloudfront.net/annie-helms/span_perception_stimuli/F1_dur4,406,15,OK,PONdiss,548
16376775ddea90,897235,1,illegal_key,2,https://d3uxfe7dw0hhy7.cloudfront.net/annie-helms/span_perception_stimuli/F1_dur1,393,15,OK,ponDISS,670
16376775ddea90,897235,1,illegal_key,3,https://d3uxfe7dw0hhy7.cloudfront.net/annie-helms/span_perception_stimuli/F1_dur3,402,15,OK,PONdiss,679
16376775ddea90,897235,1,illegal_key,4,https://d3uxfe7dw0hhy7.cloudfront.net/annie-helms/span_perception_stimuli/F1_dur2,397,15,OK,ponDISS,1054
16376775ddea90,897235,1,illegal_key,0,https://d3uxfe7dw0hhy7.cloudfront.net/annie-helms/span_perception_stimuli/F1_dur2,397,15,OK,ponDISS,1116
16376775ddea90,897235,1,illegal_key,1,https://d3uxfe7dw0hhy7.cloudfront.net/annie-helms/span_perception_stimuli/F1_dur4,406,15,OK,PONdiss,555
16376775ddea90,897235,1,illegal_key,2,https://d3uxfe7dw0hhy7.cloudfront.net/annie-helms/span_perception_stimuli/F1_dur1,393,15,OK,ponDISS,643
16376775ddea90,897235,1,illegal_key,3,https://d3uxfe7dw0hhy7.cloudfront.net/annie-helms/span_perception_stimuli/F1_dur5,410,10,OK,PONdiss,728
16376775ddea90,897235,1,illegal_key,4,https://d3uxfe7dw0hhy7.cloudfront.net/annie-helms/span_perception_stimuli/F1_dur3,402,10,OK,ponDISS,613
16377b98b2b733,897235,1,illegal_key,0,https://d3uxfe7dw0hhy7.cloudfront.net/annie-helms/eng_perception_stimuli/_CONvert,838,515,OK,CONvert,3456
16377b98b2b733,897235,1,illegal_key,1,https://d3uxfe7dw0hhy7.cloudfront.net/annie-helms/eng_perception_stimuli/_CONtract,971,395,early_response,CONtract,2038
16377b98b2b733,897235,1,illegal_key,2,https://d3uxfe7dw0hhy7.cloudfront.net/annie-helms/eng_perception_stimuli/comBINE,972,140,OK,comBINE,1532
16377b98b2b733,897235,1,illegal_key,3,https://d3uxfe7dw0hhy7.cloudfront.net/annie-helms/eng_perception_stimuli/conVICT,858,250,OK,conVICT,1236
16377b98b2b733,897235,1,illegal_key,4,https://d3uxfe7dw0hhy7.cloudfront.net/annie-helms/eng_perception_stimuli/conTRACT,872,125,OK,conTRACT,1234
16377b98b2b733,897235,1,illegal_key,5,https://d3uxfe7dw0hhy7.cloudfront.net/annie-helms/eng_perception_stimuli/_COMbine,911,115,OK,COMbine,1251
16377b98b2b733,897235,1,illegal_key,6,https://d3uxfe7dw0hhy7.cloudfront.net/annie-helms/eng_perception_stimuli/_CONvict,946,245,OK,CONvict,1253
16377b98b2b733,897235,1,illegal_key,7,https://d3uxfe7dw0hhy7.cloudfront.net/annie-helms/eng_perception_stimuli/conVERT,960,360,OK,conVERT,1348
16377b98b2b733,897235,1,illegal_key,0,https://d3uxfe7dw0hhy7.cloudfront.net/annie-helms/span_perception_stimuli/F1_dur5,410,15,OK,PONdiss,1786
16377b98b2b733,897235,1,illegal_key,1,https://d3uxfe7dw0hhy7.cloudfront.net/annie-helms/span_perception_stimuli/F1_dur4,406,20,OK,PONdiss,1246
16377b98b2b733,897235,1,illegal_key,2,https://d3uxfe7dw0hhy7.cloudfront.net/annie-helms/span_perception_stimuli/F1_dur2,397,15,OK,ponDISS,1555
16377b98b2b733,897235,1,illegal_key,3,https://d3uxfe7dw0hhy7.cloudfront.net/annie-helms/span_perception_stimuli/F1_dur1,393,25,OK,ponDISS,1179
16377b98b2b733,897235,1,illegal_key,4,https://d3uxfe7dw0hhy7.cloudfront.net/annie-helms/span_perception_stimuli/F1_dur3,402,20,OK,ponDISS,934
16385078f5ac3f,0,1,illegal_key,0,https://d3uxfe7dw0hhy7.cloudfront.net/annie-helms/eng_perception_stimuli/_CONtract,971,450,OK,CONtract,1703
16385078f5ac3f,0,1,illegal_key,1,https://d3uxfe7dw0hhy7.cloudfront.net/annie-helms/eng_perception_stimuli/conVERT,960,185,OK,conVERT,2019
16385078f5ac3f,0,1,illegal_key,2,https://d3uxfe7dw0hhy7.cloudfront.net/annie-helms/eng_perception_stimuli/comBINE,972,180,OK,comBINE,2108
16385078f5ac3f,0,1,illegal_key,3,https://d3uxfe7dw0hhy7.cloudfront.net/annie-helms/eng_perception_stimuli/conTRACT,872,200,OK,conTRACT,1402
16385078f5ac3f,0,1,illegal_key,4,https://d3uxfe7dw0hhy7.cloudfront.net/annie-helms/eng_perception_stimuli/conVICT,858,200,OK,conVICT,1732
16385078f5ac3f,0,1,illegal_key,5,https://d3uxfe7dw0hhy7.cloudfront.net/annie-helms/eng_perception_stimuli/_CONvert,838,195,OK,CONvert,1419
16385078f5ac3f,0,1,illegal_key,6,https://d3uxfe7dw0hhy7.cloudfront.net/annie-helms/eng_perception_stimuli/_CONvict,946,185,OK,CONvict,1154
16385078f5ac3f,0,1,illegal_key,7,https://d3uxfe7dw0hhy7.cloudfront.net/annie-helms/eng_perception_stimuli/_COMbine,911,200,OK,COMbine,2342
16385093f2e924,897235,1,illegal_key,0,https://d3uxfe7dw0hhy7.cloudfront.net/annie-helms/eng_perception_stimuli/conVICT,858,30,OK,conVICT,2216
16385093f2e924,897235,1,illegal_key,1,https://d3uxfe7dw0hhy7.cloudfront.net/annie-helms/eng_perception_stimuli/_CONtract,971,25,OK,CONtract,1894
16385094aa4e35,897235,1,illegal_key,0,https://d3uxfe7dw0hhy7.cloudfront.net/annie-helms/eng_perception_stimuli/conVERT,960,20,OK,conVERT,1818
16385094aa4e35,897235,1,illegal_key,1,https://d3uxfe7dw0hhy7.cloudfront.net/annie-helms/eng_perception_stimuli/_COMbine,911,20,OK,blob,1818
16385094aa4e35,897235,1,illegal_key,2,https://d3uxfe7dw0hhy7.cloudfront.net/annie-helms/eng_perception_stimuli/_CONvict,946,25,OK,CONvict,1702
1638509af8d371,897235,1,illegal_key,0,https://d3uxfe7dw0hhy7.cloudfront.net/annie-helms/eng_perception_stimuli/_CONvert,838,25,OK,blob,1719
1638509af8d371,897235,1,illegal_key,1,https://d3uxfe7dw0hhy7.cloudfront.net/annie-helms/eng_perception_stimuli/conTRACT,872,20,OK,blob,1748
1638509af8d371,897235,1,illegal_key,2,https://d3uxfe7dw0hhy7.cloudfront.net/annie-helms/eng_perception_stimuli/conVICT,858,20,OK,blob,2127
1638509af8d371,897235,1,illegal_key,3,https://d3uxfe7dw0hhy7.cloudfront.net/annie-helms/eng_perception_stimuli/_COMbine,911,20,OK,blob,1628
163850a4b7c4e6,897235,1,illegal_key,0,https://d3uxfe7dw0hhy7.cloudfront.net/annie-helms/eng_perception_stimuli/conTRACT,872,25,OK,conTRACT,1978
16385162e3ea55,0,1,illegal_key,0,https://d3uxfe7dw0hhy7.cloudfront.net/annie-helms/eng_perception_stimuli/_COMbine,911,265,OK,COMbine,2386
16385162e3ea55,0,1,illegal_key,1,https://d3uxfe7dw0hhy7.cloudfront.net/annie-helms/eng_perception_stimuli/conVERT,960,90,incorrect_response,CONvert,625
16385162e3ea55,0,1,illegal_key,2,https://d3uxfe7dw0hhy7.cloudfront.net/annie-helms/eng_perception_stimuli/_CONtract,971,80,OK,CONtract,2583
16385162e3ea55,0,1,illegal_key,3,https://d3uxfe7dw0hhy7.cloudfront.net/annie-helms/eng_perception_stimuli/comBINE,972,100,OK,comBINE,1927
16385162e3ea55,0,1,illegal_key,4,https://d3uxfe7dw0hhy7.cloudfront.net/annie-helms/eng_perception_stimuli/conVICT,858,95,incorrect_response,CONvict,660
16385162e3ea55,0,1,illegal_key,5,https://d3uxfe7dw0hhy7.cloudfront.net/annie-helms/eng_perception_stimuli/_CONvert,838,80,incorrect_response,conVERT,1393
163852a84e0e71,0,1,illegal_key,0,https://d3uxfe7dw0hhy7.cloudfront.net/annie-helms/eng_perception_stimuli/_CONvert,838,240,OK,CONvert,478
163855a2a0c3e0,0,1,illegal_key,0,https://d3uxfe7dw0hhy7.cloudfront.net/annie-helms/eng_perception_stimuli/conVERT,960,45,incorrect_response,CONvert,4583
163855a2a0c3e0,0,1,illegal_key,1,https://d3uxfe7dw0hhy7.cloudfront.net/annie-helms/eng_perception_stimuli/comBINE,972,5,incorrect_response,COMbine,2222
163855a2a0c3e0,0,1,illegal_key,2,https://d3uxfe7dw0hhy7.cloudfront.net/annie-helms/eng_perception_stimuli/_COMbine,911,10,OK,COMbine,1587
163855a2a0c3e0,0,1,illegal_key,3,https://d3uxfe7dw0hhy7.cloudfront.net/annie-helms/eng_perception_stimuli/_CONtract,971,5,incorrect_response,conTRACT,876
163855a2a0c3e0,0,1,illegal_key,4,https://d3uxfe7dw0hhy7.cloudfront.net/annie-helms/eng_perception_stimuli/conTRACT,872,10,slow_response,conTRACT,69447
163855a2a0c3e0,0,1,illegal_key,5,https://d3uxfe7dw0hhy7.cloudfront.net/annie-helms/eng_perception_stimuli/conVICT,858,15,OK,conVICT,15779
163855a2a0c3e0,0,1,illegal_key,6,https://d3uxfe7dw0hhy7.cloudfront.net/annie-helms/eng_perception_stimuli/_CONvict,946,5,incorrect_response,conVICT,4347
163855b7e218ed,0,1,illegal_key,0,https://d3uxfe7dw0hhy7.cloudfront.net/annie-helms/eng_perception_stimuli/conVERT,960,55,incorrect_response,CONvert,18263
163855b7e218ed,0,1,illegal_key,1,https://d3uxfe7dw0hhy7.cloudfront.net/annie-helms/eng_perception_stimuli/_CONvict,946,10,incorrect_response,conVICT,21374
163855b7e218ed,0,1,illegal_key,2,https://d3uxfe7dw0hhy7.cloudfront.net/annie-helms/eng_perception_stimuli/conTRACT,872,10,OK,conTRACT,4338
163855b7e218ed,0,1,illegal_key,3,https://d3uxfe7dw0hhy7.cloudfront.net/annie-helms/eng_perception_stimuli/comBINE,972,10,incorrect_response,COMbine,2763
163855b7e218ed,0,1,illegal_key,4,https://d3uxfe7dw0hhy7.cloudfront.net/annie-helms/eng_perception_stimuli/_COMbine,911,10,OK,COMbine,7006
163855b7e218ed,0,1,illegal_key,5,https://d3uxfe7dw0hhy7.cloudfront.net/annie-helms/eng_perception_stimuli/conVICT,858,10,unallowed_response,conVICT,15469
163855b7e218ed,0,1,illegal_key,6,https://d3uxfe7dw0hhy7.cloudfront.net/annie-helms/eng_perception_stimuli/_CONvert,838,10,OK,CONvert,5910
163855e25bb6d2,0,1,illegal_key,0,https://d3uxfe7dw0hhy7.cloudfront.net/annie-helms/eng_perception_stimuli/_CONtract,971,235,OK,CONtract,255
163856c1522514,0,1,illegal_key,0,https://d3uxfe7dw0hhy7.cloudfront.net/annie-helms/eng_perception_stimuli/_CONtract,971,15,OK,CONtract,1395
163856c1522514,0,1,illegal_key,1,https://d3uxfe7dw0hhy7.cloudfront.net/annie-helms/eng_perception_stimuli/_CONvert,838,15,OK,CONvert,950
16386437c03017,0,1,illegal_key,0,https://d3uxfe7dw0hhy7.cloudfront.net/annie-helms/eng_perception_stimuli/conVERT,960,220,OK,conVERT,2467
16386449de076a,0,1,illegal_key,0,https://d3uxfe7dw0hhy7.cloudfront.net/annie-helms/eng_perception_stimuli/conVERT,960,200,OK,conVERT,2323
16386449de076a,0,1,illegal_key,1,https://d3uxfe7dw0hhy7.cloudfront.net/annie-helms/eng_perception_stimuli/_CONvert,838,15,incorrect_response,conVERT,1313
16386449de076a,0,1,illegal_key,2,https://d3uxfe7dw0hhy7.cloudfront.net/annie-helms/eng_perception_stimuli/_CONtract,971,15,OK,CONtract,2586
1638645bad3729,0,1,illegal_key,0,https://d3uxfe7dw0hhy7.cloudfront.net/annie-helms/eng_perception_stimuli/comBINE,972,215,OK,comBINE,2122
1638645bad3729,0,1,illegal_key,1,https://d3uxfe7dw0hhy7.cloudfront.net/annie-helms/eng_perception_stimuli/conVERT,960,20,incorrect_response,CONvert,2070
1638645bad3729,0,1,illegal_key,2,https://d3uxfe7dw0hhy7.cloudfront.net/annie-helms/eng_perception_stimuli/conVICT,858,20,OK,conVICT,2023
1638645bad3729,0,1,illegal_key,3,https://d3uxfe7dw0hhy7.cloudfront.net/annie-helms/eng_perception_stimuli/conTRACT,872,20,incorrect_response,CONtract,1398
1638645bad3729,0,1,illegal_key,4,https://d3uxfe7dw0hhy7.cloudfront.net/annie-helms/eng_perception_stimuli/_CONvict,946,25,OK,CONvict,1447
1638646a0554a1,0,1,illegal_key,0,https://d3uxfe7dw0hhy7.cloudfront.net/annie-helms/eng_perception_stimuli/comBINE,972,250,incorrect_response,COMbine,3901
1638646a0554a1,0,1,illegal_key,1,https://d3uxfe7dw0hhy7.cloudfront.net/annie-helms/eng_perception_stimuli/_CONvert,838,20,OK,CONvert,1331
1638646a0554a1,0,1,illegal_key,2,https://d3uxfe7dw0hhy7.cloudfront.net/annie-helms/eng_perception_stimuli/conVERT,960,20,OK,conVERT,1481
1638646a0554a1,0,1,illegal_key,3,https://d3uxfe7dw0hhy7.cloudfront.net/annie-helms/eng_perception_stimuli/_CONvict,946,20,incorrect_response,conVICT,5416
1638646a0554a1,0,1,illegal_key,4,https://d3uxfe7dw0hhy7.cloudfront.net/annie-helms/eng_perception_stimuli/conTRACT,872,20,slow_response,conTRACT,5803
1638647e8eb36b,0,1,illegal_key,0,https://d3uxfe7dw0hhy7.cloudfront.net/annie-helms/eng_perception_stimuli/_CONtract,971,205,OK,CONtract,1730
1638647e8eb36b,0,1,illegal_key,1,https://d3uxfe7dw0hhy7.cloudfront.net/annie-helms/eng_perception_stimuli/_COMbine,911,20,incorrect_response,comBINE,1699
163864dbaef150,0,1,illegal_key,0,https://d3uxfe7dw0hhy7.cloudfront.net/annie-helms/eng_perception_stimuli/_COMbine,911,195,OK,COMbine,2253
1638650a50870f,0,1,illegal_key,0,https://d3uxfe7dw0hhy7.cloudfront.net/annie-helms/eng_perception_stimuli/_COMbine,911,235,incorrect_response,comBINE,1556
1638650a50870f,0,1,illegal_key,1,https://d3uxfe7dw0hhy7.cloudfront.net/annie-helms/eng_perception_stimuli/comBINE,972,15,incorrect_response,COMbine,1705
1638650a50870f,0,1,illegal_key,2,https://d3uxfe7dw0hhy7.cloudfront.net/annie-helms/eng_perception_stimuli/conVICT,858,20,OK,conVICT,1310
16387a2754baa2,0,1,illegal_key,0,https://d3uxfe7dw0hhy7.cloudfront.net/annie-helms/practice_2AFC/convict_stress1_1,450,595,incorrect_response,CONvict,2407
16387a2754baa2,0,1,illegal_key,1,https://d3uxfe7dw0hhy7.cloudfront.net/annie-helms/practice_2AFC/convict_stress0_1,538,215,OK,CONvict,1291
16387a2754baa2,0,1,illegal_key,2,https://d3uxfe7dw0hhy7.cloudfront.net/annie-helms/practice_2AFC/convict_stress1_2,429,165,OK,conVICT,1238
16387a2754baa2,0,1,illegal_key,3,https://d3uxfe7dw0hhy7.cloudfront.net/annie-helms/practice_2AFC/convict_stress0_2,559,195,incorrect_response,conVICT,1123
16387a2754baa2,0,1,illegal_key,4,https://d3uxfe7dw0hhy7.cloudfront.net/annie-helms/practice_2AFC/convict_stress1_2,429,20,OK,conVICT,1140
16387a2754baa2,0,1,illegal_key,5,https://d3uxfe7dw0hhy7.cloudfront.net/annie-helms/practice_2AFC/convict_stress0_1,538,10,OK,CONvict,1098
16387a2754baa2,0,1,illegal_key,0,https://d3uxfe7dw0hhy7.cloudfront.net/annie-helms/eng_perception_stimuli/st5_dur4,403,185,OK,PONdiss,2164
16387a2754baa2,0,1,illegal_key,1,https://d3uxfe7dw0hhy7.cloudfront.net/annie-helms/eng_perception_stimuli/st4_dur2,431,170,OK,PONdiss,2176
16387a2754baa2,0,1,illegal_key,2,https://d3uxfe7dw0hhy7.cloudfront.net/annie-helms/eng_perception_stimuli/F6_st6,447,165,OK,ponDISS,1450
16387a2754baa2,0,1,illegal_key,3,https://d3uxfe7dw0hhy7.cloudfront.net/annie-helms/eng_perception_stimuli/F2_dur5,381,150,OK,PONdiss,1309
16387a2754baa2,0,1,illegal_key,4,https://d3uxfe7dw0hhy7.cloudfront.net/annie-helms/eng_perception_stimuli/st6_dur1,445,155,OK,PONdiss,1887
16398fbb442079,0,1,illegal_key,0,https://d3uxfe7dw0hhy7.cloudfront.net/annie-helms/practice_2AFC/convict_stress0_2,559,275,incorrect_response,conVICT,5414
16398fbb442079,0,1,illegal_key,1,https://d3uxfe7dw0hhy7.cloudfront.net/annie-helms/practice_2AFC/convict_stress1_2,429,155,OK,conVICT,1138
16398fbb442079,0,1,illegal_key,2,https://d3uxfe7dw0hhy7.cloudfront.net/annie-helms/practice_2AFC/convict_stress1_2,429,15,OK,conVICT,1003
16398fbb442079,0,1,illegal_key,3,https://d3uxfe7dw0hhy7.cloudfront.net/annie-helms/practice_2AFC/convict_stress1_1,450,150,OK,conVICT,1744
16398fbb442079,0,1,illegal_key,4,https://d3uxfe7dw0hhy7.cloudfront.net/annie-helms/practice_2AFC/convict_stress0_1,538,155,OK,CONvict,1090
16398fbb442079,0,1,illegal_key,5,https://d3uxfe7dw0hhy7.cloudfront.net/annie-helms/practice_2AFC/convict_stress0_1,538,15,OK,CONvict,1025
16398fbb442079,0,1,illegal_key,0,https://d3uxfe7dw0hhy7.cloudfront.net/annie-helms/eng_perception_stimuli/F1_st5,451,170,OK,PONdiss,1422
16398fbb442079,0,1,illegal_key,1,https://d3uxfe7dw0hhy7.cloudfront.net/annie-helms/eng_perception_stimuli/st1_dur4,403,140,OK,PONdiss,1661
16398fbb442079,0,1,illegal_key,2,https://d3uxfe7dw0hhy7.cloudfront.net/annie-helms/eng_perception_stimuli/F1_st3,451,160,OK,PONdiss,953
16398fbb442079,0,1,illegal_key,3,https://d3uxfe7dw0hhy7.cloudfront.net/annie-helms/eng_perception_stimuli/st4_dur6,367,175,OK,ponDISS,1169
16398fbb442079,0,1,illegal_key,4,https://d3uxfe7dw0hhy7.cloudfront.net/annie-helms/eng_perception_stimuli/F5_st2,447,150,OK,ponDISS,1076
16398fbb442079,0,1,illegal_key,5,https://d3uxfe7dw0hhy7.cloudfront.net/annie-helms/eng_perception_stimuli/F4_st3,452,160,OK,ponDISS,889
16398fbb442079,0,1,illegal_key,6,https://d3uxfe7dw0hhy7.cloudfront.net/annie-helms/eng_perception_stimuli/F2_st2,452,145,OK,PONdiss,871
16398fbb442079,0,1,illegal_key,7,https://d3uxfe7dw0hhy7.cloudfront.net/annie-helms/eng_perception_stimuli/F5_st4,447,155,OK,PONdiss,1236
16398fbb442079,0,1,illegal_key,8,https://d3uxfe7dw0hhy7.cloudfront.net/annie-helms/eng_perception_stimuli/st5_dur2,431,175,OK,PONdiss,1021
16398fbb442079,0,1,illegal_key,9,https://d3uxfe7dw0hhy7.cloudfront.net/annie-helms/eng_perception_stimuli/F6_dur3,418,150,OK,PONdiss,1638
16398fbb442079,0,1,illegal_key,10,https://d3uxfe7dw0hhy7.cloudfront.net/annie-helms/eng_perception_stimuli/st3_dur4,403,165,OK,PONdiss,907
16398fbb442079,0,1,illegal_key,11,https://d3uxfe7dw0hhy7.cloudfront.net/annie-helms/eng_perception_stimuli/F2_dur1,451,155,OK,PONdiss,902
16398fbb442079,0,1,illegal_key,12,https://d3uxfe7dw0hhy7.cloudfront.net/annie-helms/eng_perception_stimuli/F2_st1,452,160,OK,PONdiss,787
16398fbb442079,0,1,illegal_key,13,https://d3uxfe7dw0hhy7.cloudfront.net/annie-helms/eng_perception_stimuli/F4_st6,446,160,OK,ponDISS,1053
16398fbb442079,0,1,illegal_key,14,https://d3uxfe7dw0hhy7.cloudfront.net/annie-helms/eng_perception_stimuli/F1_dur4,402,155,OK,PONdiss,930
16398fbb442079,0,1,illegal_key,15,https://d3uxfe7dw0hhy7.cloudfront.net/annie-helms/eng_perception_stimuli/st4_dur3,417,160,OK,PONdiss,1568
16398fbb442079,0,1,illegal_key,16,https://d3uxfe7dw0hhy7.cloudfront.net/annie-helms/eng_perception_stimuli/F2_dur5,381,155,OK,PONdiss,778
16398fbb442079,0,1,illegal_key,17,https://d3uxfe7dw0hhy7.cloudfront.net/annie-helms/eng_perception_stimuli/F5_st5,447,145,OK,ponDISS,1042
16398fbb442079,0,1,illegal_key,18,https://d3uxfe7dw0hhy7.cloudfront.net/annie-helms/eng_perception_stimuli/st1_dur3,423,195,OK,PONdiss,1266
16398fbb442079,0,1,illegal_key,19,https://d3uxfe7dw0hhy7.cloudfront.net/annie-helms/eng_perception_stimuli/F5_st3,447,150,OK,PONdiss,800
16398fbb442079,0,1,illegal_key,20,https://d3uxfe7dw0hhy7.cloudfront.net/annie-helms/eng_perception_stimuli/st6_dur3,417,170,OK,PONdiss,795
16398fbb442079,0,1,illegal_key,21,https://d3uxfe7dw0hhy7.cloudfront.net/annie-helms/eng_perception_stimuli/F3_dur2,431,220,OK,PONdiss,766
16398fbb442079,0,1,illegal_key,22,https://d3uxfe7dw0hhy7.cloudfront.net/annie-helms/eng_perception_stimuli/F3_st3,452,165,OK,PONdiss,753
16398fbb442079,0,1,illegal_key,23,https://d3uxfe7dw0hhy7.cloudfront.net/annie-helms/eng_perception_stimuli/F1_st1,451,190,OK,PONdiss,936
16398fbb442079,0,1,illegal_key,24,https://d3uxfe7dw0hhy7.cloudfront.net/annie-helms/eng_perception_stimuli/F1_st4,451,150,OK,PONdiss,630
16398fbb442079,0,1,illegal_key,25,https://d3uxfe7dw0hhy7.cloudfront.net/annie-helms/eng_perception_stimuli/st6_dur4,403,150,OK,ponDISS,1065
16398fbb442079,0,1,illegal_key,26,https://d3uxfe7dw0hhy7.cloudfront.net/annie-helms/eng_perception_stimuli/F2_dur3,423,175,OK,ponDISS,1318
16398fbb442079,0,1,illegal_key,27,https://d3uxfe7dw0hhy7.cloudfront.net/annie-helms/eng_perception_stimuli/F2_st3,452,195,OK,PONdiss,1124
16398fbb442079,0,1,illegal_key,28,https://d3uxfe7dw0hhy7.cloudfront.net/annie-helms/eng_perception_stimuli/F3_dur1,445,155,OK,PONdiss,775
16398fbb442079,0,1,illegal_key,29,https://d3uxfe7dw0hhy7.cloudfront.net/annie-helms/eng_perception_stimuli/st4_dur1,445,155,OK,PONdiss,842
16398fbb442079,0,1,illegal_key,30,https://d3uxfe7dw0hhy7.cloudfront.net/annie-helms/eng_perception_stimuli/F6_st2,447,155,OK,ponDISS,991
16398fbb442079,0,1,illegal_key,31,https://d3uxfe7dw0hhy7.cloudfront.net/annie-helms/eng_perception_stimuli/st4_dur2,431,160,OK,PONdiss,1419
16398fbb442079,0,1,illegal_key,32,https://d3uxfe7dw0hhy7.cloudfront.net/annie-helms/eng_perception_stimuli/st2_dur1,445,195,OK,PONdiss,747
16398fbb442079,0,1,illegal_key,33,https://d3uxfe7dw0hhy7.cloudfront.net/annie-helms/eng_perception_stimuli/st2_dur4,403,150,OK,PONdiss,752
16398fbb442079,0,1,illegal_key,34,https://d3uxfe7dw0hhy7.cloudfront.net/annie-helms/eng_perception_stimuli/st1_dur5,381,140,OK,ponDISS,889
16398fbb442079,0,1,illegal_key,35,https://d3uxfe7dw0hhy7.cloudfront.net/annie-helms/eng_perception_stimuli/F2_dur4,403,145,OK,PONdiss,1217
16398fbb442079,0,1,illegal_key,36,https://d3uxfe7dw0hhy7.cloudfront.net/annie-helms/eng_perception_stimuli/F3_st5,452,155,OK,PONdiss,1069
16398fbb442079,0,1,illegal_key,37,https://d3uxfe7dw0hhy7.cloudfront.net/annie-helms/eng_perception_stimuli/F3_dur3,417,165,OK,PONdiss,860
16398fbb442079,0,1,illegal_key,38,https://d3uxfe7dw0hhy7.cloudfront.net/annie-helms/eng_perception_stimuli/F2_dur2,437,150,OK,PONdiss,695
16398fbb442079,0,1,illegal_key,39,https://d3uxfe7dw0hhy7.cloudfront.net/annie-helms/eng_perception_stimuli/F1_dur5,380,150,OK,ponDISS,854
16398fbb442079,0,1,illegal_key,40,https://d3uxfe7dw0hhy7.cloudfront.net/annie-helms/eng_perception_stimuli/F2_dur6,373,145,OK,ponDISS,1198
16398fbb442079,0,1,illegal_key,41,https://d3uxfe7dw0hhy7.cloudfront.net/annie-helms/eng_perception_stimuli/st3_dur5,381,140,OK,ponDISS,900
16398fbb442079,0,1,illegal_key,42,https://d3uxfe7dw0hhy7.cloudfront.net/annie-helms/eng_perception_stimuli/F5_dur2,431,145,OK,ponDISS,865
16398fbb442079,0,1,illegal_key,43,https://d3uxfe7dw0hhy7.cloudfront.net/annie-helms/eng_perception_stimuli/F4_st1,452,170,OK,PONdiss,919
16398fbb442079,0,1,illegal_key,44,https://d3uxfe7dw0hhy7.cloudfront.net/annie-helms/eng_perception_stimuli/F6_dur1,446,165,OK,PONdiss,857
16398fbb442079,0,1,illegal_key,45,https://d3uxfe7dw0hhy7.cloudfront.net/annie-helms/eng_perception_stimuli/st1_dur6,373,165,OK,PONdiss,1099
16398fbb442079,0,1,illegal_key,46,https://d3uxfe7dw0hhy7.cloudfront.net/annie-helms/eng_perception_stimuli/F1_dur2,430,190,OK,PONdiss,771
16398fbb442079,0,1,illegal_key,47,https://d3uxfe7dw0hhy7.cloudfront.net/annie-helms/eng_perception_stimuli/F3_dur4,403,160,OK,ponDISS,1060
16398fbb442079,0,1,illegal_key,48,https://d3uxfe7dw0hhy7.cloudfront.net/annie-helms/eng_perception_stimuli/F5_dur3,418,145,OK,PONdiss,1023
16398fbb442079,0,1,illegal_key,49,https://d3uxfe7dw0hhy7.cloudfront.net/annie-helms/eng_perception_stimuli/F6_st6,447,150,OK,ponDISS,1321
16398fbb442079,0,1,illegal_key,50,https://d3uxfe7dw0hhy7.cloudfront.net/annie-helms/eng_perception_stimuli/F2_st4,452,165,OK,PONdiss,760
16398fbb442079,0,1,illegal_key,51,https://d3uxfe7dw0hhy7.cloudfront.net/annie-helms/eng_perception_stimuli/F1_dur3,422,165,OK,PONdiss,815
16398fbb442079,0,1,illegal_key,52,https://d3uxfe7dw0hhy7.cloudfront.net/annie-helms/eng_perception_stimuli/st4_dur5,381,190,OK,ponDISS,934
16398fbb442079,0,1,illegal_key,53,https://d3uxfe7dw0hhy7.cloudfront.net/annie-helms/eng_perception_stimuli/F3_st4,452,160,OK,ponDISS,973
16398fbb442079,0,1,illegal_key,54,https://d3uxfe7dw0hhy7.cloudfront.net/annie-helms/eng_perception_stimuli/F2_st6,452,155,OK,PONdiss,752
16398fbb442079,0,1,illegal_key,55,https://d3uxfe7dw0hhy7.cloudfront.net/annie-helms/eng_perception_stimuli/st5_dur6,367,185,OK,ponDISS,930
16398fbb442079,0,1,illegal_key,56,https://d3uxfe7dw0hhy7.cloudfront.net/annie-helms/eng_perception_stimuli/F1_dur1,444,185,OK,PONdiss,817
16398fbb442079,0,1,illegal_key,57,https://d3uxfe7dw0hhy7.cloudfront.net/annie-helms/eng_perception_stimuli/st1_dur1,450,145,OK,ponDISS,1345
16398fbb442079,0,1,illegal_key,58,https://d3uxfe7dw0hhy7.cloudfront.net/annie-helms/eng_perception_stimuli/F3_st6,452,150,OK,ponDISS,1190
16398fbb442079,0,1,illegal_key,59,https://d3uxfe7dw0hhy7.cloudfront.net/annie-helms/eng_perception_stimuli/F5_dur1,445,170,OK,ponDISS,974
16398fbb442079,0,1,illegal_key,60,https://d3uxfe7dw0hhy7.cloudfront.net/annie-helms/eng_perception_stimuli/F1_st6,451,160,OK,ponDISS,1646
16398fbb442079,0,1,illegal_key,61,https://d3uxfe7dw0hhy7.cloudfront.net/annie-helms/eng_perception_stimuli/F6_st5,447,170,OK,ponDISS,1120
16398fbb442079,0,1,illegal_key,62,https://d3uxfe7dw0hhy7.cloudfront.net/annie-helms/eng_perception_stimuli/st2_dur6,373,175,OK,ponDISS,1077
16398fbb442079,0,1,illegal_key,63,https://d3uxfe7dw0hhy7.cloudfront.net/annie-helms/eng_perception_stimuli/F4_dur5,382,155,OK,ponDISS,751
16398fbb442079,0,1,illegal_key,64,https://d3uxfe7dw0hhy7.cloudfront.net/annie-helms/eng_perception_stimuli/F4_dur6,368,160,OK,ponDISS,702
16398fbb442079,0,1,illegal_key,65,https://d3uxfe7dw0hhy7.cloudfront.net/annie-helms/eng_perception_stimuli/F3_st2,452,195,OK,PONdiss,938
16398fbb442079,0,1,illegal_key,66,https://d3uxfe7dw0hhy7.cloudfront.net/annie-helms/eng_perception_stimuli/st1_dur2,436,150,OK,PONdiss,937
16398fbb442079,0,1,illegal_key,67,https://d3uxfe7dw0hhy7.cloudfront.net/annie-helms/eng_perception_stimuli/F4_dur3,417,170,OK,PONdiss,819
16398fbb442079,0,1,illegal_key,68,https://d3uxfe7dw0hhy7.cloudfront.net/annie-helms/eng_perception_stimuli/F6_dur5,382,150,OK,ponDISS,1388
16398fbb442079,0,1,illegal_key,69,https://d3uxfe7dw0hhy7.cloudfront.net/annie-helms/eng_perception_stimuli/F4_dur1,445,140,OK,ponDISS,1003
16398fbb442079,0,1,illegal_key,70,https://d3uxfe7dw0hhy7.cloudfront.net/annie-helms/eng_perception_stimuli/F3_st1,452,165,OK,ponDISS,823
16398fbb442079,0,1,illegal_key,71,https://d3uxfe7dw0hhy7.cloudfront.net/annie-helms/eng_perception_stimuli/F6_st1,447,155,OK,PONdiss,1228
16398fbb442079,0,1,illegal_key,72,https://d3uxfe7dw0hhy7.cloudfront.net/annie-helms/eng_perception_stimuli/F4_dur4,403,190,OK,PONdiss,728
16398fbb442079,0,1,illegal_key,73,https://d3uxfe7dw0hhy7.cloudfront.net/annie-helms/eng_perception_stimuli/st3_dur2,431,185,OK,PONdiss,979
16398fbb442079,0,1,illegal_key,74,https://d3uxfe7dw0hhy7.cloudfront.net/annie-helms/eng_perception_stimuli/st2_dur2,437,160,OK,PONdiss,742
16398fbb442079,0,1,illegal_key,75,https://d3uxfe7dw0hhy7.cloudfront.net/annie-helms/eng_perception_stimuli/st2_dur3,417,160,OK,PONdiss,789
16398fbb442079,0,1,illegal_key,76,https://d3uxfe7dw0hhy7.cloudfront.net/annie-helms/eng_perception_stimuli/F5_dur4,404,145,OK,PONdiss,836
16398fbb442079,0,1,illegal_key,77,https://d3uxfe7dw0hhy7.cloudfront.net/annie-helms/eng_perception_stimuli/F5_st6,447,190,OK,PONdiss,1150
16398fbb442079,0,1,illegal_key,78,https://d3uxfe7dw0hhy7.cloudfront.net/annie-helms/eng_perception_stimuli/F4_st4,446,140,OK,PONdiss,1521
16398fbb442079,0,1,illegal_key,79,https://d3uxfe7dw0hhy7.cloudfront.net/annie-helms/eng_perception_stimuli/F6_st3,447,170,OK,PONdiss,1251
16398fbb442079,0,1,illegal_key,80,https://d3uxfe7dw0hhy7.cloudfront.net/annie-helms/eng_perception_stimuli/F1_st2,451,150,OK,PONdiss,1407
16398fbb442079,0,1,illegal_key,81,https://d3uxfe7dw0hhy7.cloudfront.net/annie-helms/eng_perception_stimuli/st5_dur4,403,145,OK,ponDISS,1045
16398fbb442079,0,1,illegal_key,82,https://d3uxfe7dw0hhy7.cloudfront.net/annie-helms/eng_perception_stimuli/st5_dur1,445,155,OK,ponDISS,1150
16398fbb442079,0,1,illegal_key,83,https://d3uxfe7dw0hhy7.cloudfront.net/annie-helms/eng_perception_stimuli/F4_st2,452,160,OK,PONdiss,982
16398fbb442079,0,1,illegal_key,84,https://d3uxfe7dw0hhy7.cloudfront.net/annie-helms/eng_perception_stimuli/F1_dur6,372,155,OK,PONdiss,1385
16398fbb442079,0,1,illegal_key,85,https://d3uxfe7dw0hhy7.cloudfront.net/annie-helms/eng_perception_stimuli/st3_dur1,445,135,OK,ponDISS,949
16398fbb442079,0,1,illegal_key,86,https://d3uxfe7dw0hhy7.cloudfront.net/annie-helms/eng_perception_stimuli/F6_dur4,397,175,OK,ponDISS,824
16398fbb442079,0,1,illegal_key,87,https://d3uxfe7dw0hhy7.cloudfront.net/annie-helms/eng_perception_stimuli/F5_st1,447,155,OK,ponDISS,617
16398fbb442079,0,1,illegal_key,88,https://d3uxfe7dw0hhy7.cloudfront.net/annie-helms/eng_perception_stimuli/st5_dur3,417,175,OK,ponDISS,863
16398fbb442079,0,1,illegal_key,89,https://d3uxfe7dw0hhy7.cloudfront.net/annie-helms/eng_perception_stimuli/st4_dur4,403,150,OK,ponDISS,888
16398fbb442079,0,1,illegal_key,90,https://d3uxfe7dw0hhy7.cloudfront.net/annie-helms/eng_perception_stimuli/F6_dur6,369,175,OK,ponDISS,897
16398fbb442079,0,1,illegal_key,91,https://d3uxfe7dw0hhy7.cloudfront.net/annie-helms/eng_perception_stimuli/st6_dur1,445,150,OK,ponDISS,775
16398fbb442079,0,1,illegal_key,92,https://d3uxfe7dw0hhy7.cloudfront.net/annie-helms/eng_perception_stimuli/F5_dur6,368,145,OK,PONdiss,927
16398fbb442079,0,1,illegal_key,93,https://d3uxfe7dw0hhy7.cloudfront.net/annie-helms/eng_perception_stimuli/st3_dur3,417,155,OK,PONdiss,815
16398fbb442079,0,1,illegal_key,94,https://d3uxfe7dw0hhy7.cloudfront.net/annie-helms/eng_perception_stimuli/F3_dur5,381,155,OK,PONdiss,842
16398fbb442079,0,1,illegal_key,95,https://d3uxfe7dw0hhy7.cloudfront.net/annie-helms/eng_perception_stimuli/st3_dur6,367,150,OK,PONdiss,908
16398fbb442079,0,1,illegal_key,96,https://d3uxfe7dw0hhy7.cloudfront.net/annie-helms/eng_perception_stimuli/st6_dur5,381,190,OK,ponDISS,787
16398fbb442079,0,1,illegal_key,97,https://d3uxfe7dw0hhy7.cloudfront.net/annie-helms/eng_perception_stimuli/F6_dur2,432,190,OK,ponDISS,781
16398fbb442079,0,1,illegal_key,98,https://d3uxfe7dw0hhy7.cloudfront.net/annie-helms/eng_perception_stimuli/F2_st5,452,150,OK,PONdiss,769
16398fbb442079,0,1,illegal_key,99,https://d3uxfe7dw0hhy7.cloudfront.net/annie-helms/eng_perception_stimuli/F4_st5,446,140,OK,ponDISS,793
16398fbb442079,0,1,illegal_key,100,https://d3uxfe7dw0hhy7.cloudfront.net/annie-helms/eng_perception_stimuli/F4_dur2,431,160,OK,ponDISS,850
16398fbb442079,0,1,illegal_key,101,https://d3uxfe7dw0hhy7.cloudfront.net/annie-helms/eng_perception_stimuli/F6_st4,447,185,OK,ponDISS,802
16398fbb442079,0,1,illegal_key,102,https://d3uxfe7dw0hhy7.cloudfront.net/annie-helms/eng_perception_stimuli/st6_dur6,367,155,OK,ponDISS,681
16398fbb442079,0,1,illegal_key,103,https://d3uxfe7dw0hhy7.cloudfront.net/annie-helms/eng_perception_stimuli/st5_dur5,381,150,OK,ponDISS,622
16398fbb442079,0,1,illegal_key,104,https://d3uxfe7dw0hhy7.cloudfront.net/annie-helms/eng_perception_stimuli/F5_dur5,382,180,OK,ponDISS,602
16398fbb442079,0,1,illegal_key,105,https://d3uxfe7dw0hhy7.cloudfront.net/annie-helms/eng_perception_stimuli/F3_dur6,374,215,OK,ponDISS,678
16398fbb442079,0,1,illegal_key,106,https://d3uxfe7dw0hhy7.cloudfront.net/annie-helms/eng_perception_stimuli/st6_dur2,431,210,OK,ponDISS,646
16398fbb442079,0,1,illegal_key,107,https://d3uxfe7dw0hhy7.cloudfront.net/annie-helms/eng_perception_stimuli/st2_dur5,381,155,OK,ponDISS,657
16398fbb442079,0,1,illegal_key,0,https://d3uxfe7dw0hhy7.cloudfront.net/annie-helms/eng_perception_stimuli/F4_st2,452,25,OK,PONdiss,1809
16398fbb442079,0,1,illegal_key,1,https://d3uxfe7dw0hhy7.cloudfront.net/annie-helms/eng_perception_stimuli/st3_dur6,367,15,OK,ponDISS,898
16398fbb442079,0,1,illegal_key,2,https://d3uxfe7dw0hhy7.cloudfront.net/annie-helms/eng_perception_stimuli/F5_st2,447,20,OK,ponDISS,982
16398fbb442079,0,1,illegal_key,3,https://d3uxfe7dw0hhy7.cloudfront.net/annie-helms/eng_perception_stimuli/F3_st6,452,15,OK,PONdiss,1234
16398fbb442079,0,1,illegal_key,4,https://d3uxfe7dw0hhy7.cloudfront.net/annie-helms/eng_perception_stimuli/F6_st4,447,20,OK,PONdiss,930
16398fbb442079,0,1,illegal_key,5,https://d3uxfe7dw0hhy7.cloudfront.net/annie-helms/eng_perception_stimuli/F4_dur5,382,25,OK,ponDISS,992
16398fbb442079,0,1,illegal_key,6,https://d3uxfe7dw0hhy7.cloudfront.net/annie-helms/eng_perception_stimuli/F5_st4,447,15,OK,PONdiss,719
16398fbb442079,0,1,illegal_key,7,https://d3uxfe7dw0hhy7.cloudfront.net/annie-helms/eng_perception_stimuli/st5_dur5,381,20,OK,ponDISS,692
16398fbb442079,0,1,illegal_key,8,https://d3uxfe7dw0hhy7.cloudfront.net/annie-helms/eng_perception_stimuli/st5_dur6,367,20,OK,ponDISS,701
16398fbb442079,0,1,illegal_key,9,https://d3uxfe7dw0hhy7.cloudfront.net/annie-helms/eng_perception_stimuli/F5_dur6,368,20,OK,ponDISS,637
16398fbb442079,0,1,illegal_key,10,https://d3uxfe7dw0hhy7.cloudfront.net/annie-helms/eng_perception_stimuli/F2_st3,452,15,OK,PONdiss,673
16398fbb442079,0,1,illegal_key,11,https://d3uxfe7dw0hhy7.cloudfront.net/annie-helms/eng_perception_stimuli/st1_dur1,450,20,OK,PONdiss,723
16398fbb442079,0,1,illegal_key,12,https://d3uxfe7dw0hhy7.cloudfront.net/annie-helms/eng_perception_stimuli/st2_dur2,437,15,OK,PONdiss,788
16398fbb442079,0,1,illegal_key,13,https://d3uxfe7dw0hhy7.cloudfront.net/annie-helms/eng_perception_stimuli/F2_st5,452,20,OK,PONdiss,724
16398fbb442079,0,1,illegal_key,14,https://d3uxfe7dw0hhy7.cloudfront.net/annie-helms/eng_perception_stimuli/F5_st1,447,25,OK,ponDISS,774
16398fbb442079,0,1,illegal_key,15,https://d3uxfe7dw0hhy7.cloudfront.net/annie-helms/eng_perception_stimuli/st2_dur3,417,20,OK,ponDISS,683
16398fbb442079,0,1,illegal_key,16,https://d3uxfe7dw0hhy7.cloudfront.net/annie-helms/eng_perception_stimuli/st2_dur5,381,20,OK,ponDISS,673
16398fbb442079,0,1,illegal_key,17,https://d3uxfe7dw0hhy7.cloudfront.net/annie-helms/eng_perception_stimuli/st4_dur2,431,25,OK,ponDISS,582
16398fbb442079,0,1,illegal_key,18,https://d3uxfe7dw0hhy7.cloudfront.net/annie-helms/eng_perception_stimuli/F2_dur1,451,20,OK,PONdiss,577
16398fbb442079,0,1,illegal_key,19,https://d3uxfe7dw0hhy7.cloudfront.net/annie-helms/eng_perception_stimuli/F2_st6,452,25,OK,PONdiss,652
16398fbb442079,0,1,illegal_key,20,https://d3uxfe7dw0hhy7.cloudfront.net/annie-helms/eng_perception_stimuli/F4_st1,452,20,OK,ponDISS,812
16398fbb442079,0,1,illegal_key,21,https://d3uxfe7dw0hhy7.cloudfront.net/annie-helms/eng_perception_stimuli/F2_dur4,403,20,OK,PONdiss,854
16398fbb442079,0,1,illegal_key,22,https://d3uxfe7dw0hhy7.cloudfront.net/annie-helms/eng_perception_stimuli/F2_dur5,381,20,OK,PONdiss,694
16398fbb442079,0,1,illegal_key,23,https://d3uxfe7dw0hhy7.cloudfront.net/annie-helms/eng_perception_stimuli/F1_dur1,444,20,OK,PONdiss,693
16398fbb442079,0,1,illegal_key,24,https://d3uxfe7dw0hhy7.cloudfront.net/annie-helms/eng_perception_stimuli/F1_st4,451,20,OK,PONdiss,1009
16398fbb442079,0,1,illegal_key,25,https://d3uxfe7dw0hhy7.cloudfront.net/annie-helms/eng_perception_stimuli/F1_st2,451,25,OK,PONdiss,676
16398fbb442079,0,1,illegal_key,26,https://d3uxfe7dw0hhy7.cloudfront.net/annie-helms/eng_perception_stimuli/F4_dur2,431,25,OK,ponDISS,1119
16398fbb442079,0,1,illegal_key,27,https://d3uxfe7dw0hhy7.cloudfront.net/annie-helms/eng_perception_stimuli/F2_st1,452,20,OK,PONdiss,646
16398fbb442079,0,1,illegal_key,28,https://d3uxfe7dw0hhy7.cloudfront.net/annie-helms/eng_perception_stimuli/st6_dur3,417,20,OK,ponDISS,581
16398fbb442079,0,1,illegal_key,29,https://d3uxfe7dw0hhy7.cloudfront.net/annie-helms/eng_perception_stimuli/F1_dur3,422,20,OK,PONdiss,591
16398fbb442079,0,1,illegal_key,30,https://d3uxfe7dw0hhy7.cloudfront.net/annie-helms/eng_perception_stimuli/st6_dur2,431,20,OK,ponDISS,613
16398fbb442079,0,1,illegal_key,31,https://d3uxfe7dw0hhy7.cloudfront.net/annie-helms/eng_perception_stimuli/st3_dur3,417,25,OK,ponDISS,1031
16398fbb442079,0,1,illegal_key,32,https://d3uxfe7dw0hhy7.cloudfront.net/annie-helms/eng_perception_stimuli/F4_dur4,403,20,OK,ponDISS,617
16398fbb442079,0,1,illegal_key,33,https://d3uxfe7dw0hhy7.cloudfront.net/annie-helms/eng_perception_stimuli/st6_dur5,381,25,OK,ponDISS,581
16398fbb442079,0,1,illegal_key,34,https://d3uxfe7dw0hhy7.cloudfront.net/annie-helms/eng_perception_stimuli/st4_dur1,445,25,OK,ponDISS,674
16398fbb442079,0,1,illegal_key,35,https://d3uxfe7dw0hhy7.cloudfront.net/annie-helms/eng_perception_stimuli/F5_dur3,418,30,OK,ponDISS,728
16398fbb442079,0,1,illegal_key,36,https://d3uxfe7dw0hhy7.cloudfront.net/annie-helms/eng_perception_stimuli/st4_dur3,417,20,OK,ponDISS,546
16398fbb442079,0,1,illegal_key,37,https://d3uxfe7dw0hhy7.cloudfront.net/annie-helms/eng_perception_stimuli/st5_dur3,417,15,OK,ponDISS,568
16398fbb442079,0,1,illegal_key,38,https://d3uxfe7dw0hhy7.cloudfront.net/annie-helms/eng_perception_stimuli/F2_dur3,423,20,OK,PONdiss,715
16398fbb442079,0,1,illegal_key,39,https://d3uxfe7dw0hhy7.cloudfront.net/annie-helms/eng_perception_stimuli/st6_dur4,403,15,OK,ponDISS,583
16398fbb442079,0,1,illegal_key,40,https://d3uxfe7dw0hhy7.cloudfront.net/annie-helms/eng_perception_stimuli/F5_dur5,382,25,OK,ponDISS,617
16398fbb442079,0,1,illegal_key,41,https://d3uxfe7dw0hhy7.cloudfront.net/annie-helms/eng_perception_stimuli/F1_st5,451,20,OK,PONdiss,637
16398fbb442079,0,1,illegal_key,42,https://d3uxfe7dw0hhy7.cloudfront.net/annie-helms/eng_perception_stimuli/st4_dur5,381,20,OK,ponDISS,541
16398fbb442079,0,1,illegal_key,43,https://d3uxfe7dw0hhy7.cloudfront.net/annie-helms/eng_perception_stimuli/F6_dur3,418,20,OK,ponDISS,891
16398fbb442079,0,1,illegal_key,44,https://d3uxfe7dw0hhy7.cloudfront.net/annie-helms/eng_perception_stimuli/st4_dur4,403,25,OK,ponDISS,774
16398fbb442079,0,1,illegal_key,45,https://d3uxfe7dw0hhy7.cloudfront.net/annie-helms/eng_perception_stimuli/F1_dur2,430,25,OK,PONdiss,606
16398fbb442079,0,1,illegal_key,46,https://d3uxfe7dw0hhy7.cloudfront.net/annie-helms/eng_perception_stimuli/F1_st6,451,25,OK,PONdiss,1016
16398fbb442079,0,1,illegal_key,47,https://d3uxfe7dw0hhy7.cloudfront.net/annie-helms/eng_perception_stimuli/F3_dur3,417,15,OK,ponDISS,910
16398fbb442079,0,1,illegal_key,48,https://d3uxfe7dw0hhy7.cloudfront.net/annie-helms/eng_perception_stimuli/st3_dur5,381,20,OK,ponDISS,667
16398fbb442079,0,1,illegal_key,49,https://d3uxfe7dw0hhy7.cloudfront.net/annie-helms/eng_perception_stimuli/F2_st4,452,20,OK,PONdiss,691
16398fbb442079,0,1,illegal_key,50,https://d3uxfe7dw0hhy7.cloudfront.net/annie-helms/eng_perception_stimuli/F6_st2,447,20,OK,ponDISS,747
16398fbb442079,0,1,illegal_key,51,https://d3uxfe7dw0hhy7.cloudfront.net/annie-helms/eng_perception_stimuli/F1_dur4,402,25,OK,PONdiss,699
16398fbb442079,0,1,illegal_key,52,https://d3uxfe7dw0hhy7.cloudfront.net/annie-helms/eng_perception_stimuli/F3_st4,452,25,OK,PONdiss,784
16398fbb442079,0,1,illegal_key,53,https://d3uxfe7dw0hhy7.cloudfront.net/annie-helms/eng_perception_stimuli/st2_dur4,403,20,OK,ponDISS,798
16398fbb442079,0,1,illegal_key,54,https://d3uxfe7dw0hhy7.cloudfront.net/annie-helms/eng_perception_stimuli/F6_st1,447,20,OK,ponDISS,785
16398fbb442079,0,1,illegal_key,55,https://d3uxfe7dw0hhy7.cloudfront.net/annie-helms/eng_perception_stimuli/st1_dur6,373,25,OK,ponDISS,744
16398fbb442079,0,1,illegal_key,56,https://d3uxfe7dw0hhy7.cloudfront.net/annie-helms/eng_perception_stimuli/F6_st5,447,20,OK,ponDISS,863
16398fbb442079,0,1,illegal_key,57,https://d3uxfe7dw0hhy7.cloudfront.net/annie-helms/eng_perception_stimuli/F5_st6,447,15,OK,ponDISS,757
16398fbb442079,0,1,illegal_key,58,https://d3uxfe7dw0hhy7.cloudfront.net/annie-helms/eng_perception_stimuli/st3_dur1,445,20,OK,ponDISS,703
16398fbb442079,0,1,illegal_key,59,https://d3uxfe7dw0hhy7.cloudfront.net/annie-helms/eng_perception_stimuli/F3_dur5,381,25,OK,PONdiss,759
16398fbb442079,0,1,illegal_key,60,https://d3uxfe7dw0hhy7.cloudfront.net/annie-helms/eng_perception_stimuli/F4_dur1,445,20,OK,ponDISS,795
16398fbb442079,0,1,illegal_key,61,https://d3uxfe7dw0hhy7.cloudfront.net/annie-helms/eng_perception_stimuli/F3_dur4,403,20,OK,ponDISS,775
16398fbb442079,0,1,illegal_key,62,https://d3uxfe7dw0hhy7.cloudfront.net/annie-helms/eng_perception_stimuli/F6_dur2,432,25,OK,ponDISS,643
16398fbb442079,0,1,illegal_key,63,https://d3uxfe7dw0hhy7.cloudfront.net/annie-helms/eng_perception_stimuli/F3_st5,452,15,OK,PONdiss,843
16398fbb442079,0,1,illegal_key,64,https://d3uxfe7dw0hhy7.cloudfront.net/annie-helms/eng_perception_stimuli/F1_st3,451,25,OK,PONdiss,717
16398fbb442079,0,1,illegal_key,65,https://d3uxfe7dw0hhy7.cloudfront.net/annie-helms/eng_perception_stimuli/F6_dur5,382,15,OK,ponDISS,598
16398fbb442079,0,1,illegal_key,66,https://d3uxfe7dw0hhy7.cloudfront.net/annie-helms/eng_perception_stimuli/F6_dur1,446,15,OK,ponDISS,532
16398fbb442079,0,1,illegal_key,67,https://d3uxfe7dw0hhy7.cloudfront.net/annie-helms/eng_perception_stimuli/st5_dur4,403,15,OK,ponDISS,655
16398fbb442079,0,1,illegal_key,68,https://d3uxfe7dw0hhy7.cloudfront.net/annie-helms/eng_perception_stimuli/F2_dur6,373,20,OK,PONdiss,786
16398fbb442079,0,1,illegal_key,69,https://d3uxfe7dw0hhy7.cloudfront.net/annie-helms/eng_perception_stimuli/st1_dur2,436,25,OK,PONdiss,860
16398fbb442079,0,1,illegal_key,70,https://d3uxfe7dw0hhy7.cloudfront.net/annie-helms/eng_perception_stimuli/F3_dur2,431,25,OK,PONdiss,750
16398fbb442079,0,1,illegal_key,71,https://d3uxfe7dw0hhy7.cloudfront.net/annie-helms/eng_perception_stimuli/F1_dur6,372,15,OK,PONdiss,762
16398fbb442079,0,1,illegal_key,72,https://d3uxfe7dw0hhy7.cloudfront.net/annie-helms/eng_perception_stimuli/F6_dur6,369,25,OK,ponDISS,798
16398fbb442079,0,1,illegal_key,73,https://d3uxfe7dw0hhy7.cloudfront.net/annie-helms/eng_perception_stimuli/st5_dur1,445,30,OK,ponDISS,955
16398fbb442079,0,1,illegal_key,74,https://d3uxfe7dw0hhy7.cloudfront.net/annie-helms/eng_perception_stimuli/F3_st2,452,25,OK,PONdiss,782
16398fbb442079,0,1,illegal_key,75,https://d3uxfe7dw0hhy7.cloudfront.net/annie-helms/eng_perception_stimuli/F1_dur5,380,15,OK,PONdiss,633
16398fbb442079,0,1,illegal_key,76,https://d3uxfe7dw0hhy7.cloudfront.net/annie-helms/eng_perception_stimuli/st4_dur6,367,30,OK,ponDISS,625
16398fbb442079,0,1,illegal_key,77,https://d3uxfe7dw0hhy7.cloudfront.net/annie-helms/eng_perception_stimuli/F3_dur1,445,20,OK,PONdiss,724
16398fbb442079,0,1,illegal_key,78,https://d3uxfe7dw0hhy7.cloudfront.net/annie-helms/eng_perception_stimuli/F3_st3,452,20,OK,PONdiss,686
16398fbb442079,0,1,illegal_key,79,https://d3uxfe7dw0hhy7.cloudfront.net/annie-helms/eng_perception_stimuli/st2_dur1,445,25,OK,PONdiss,557
16398fbb442079,0,1,illegal_key,80,https://d3uxfe7dw0hhy7.cloudfront.net/annie-helms/eng_perception_stimuli/F2_dur2,437,15,OK,PONdiss,634
16398fbb442079,0,1,illegal_key,81,https://d3uxfe7dw0hhy7.cloudfront.net/annie-helms/eng_perception_stimuli/F4_st6,446,20,OK,ponDISS,743
16398fbb442079,0,1,illegal_key,82,https://d3uxfe7dw0hhy7.cloudfront.net/annie-helms/eng_perception_stimuli/st3_dur4,403,25,OK,ponDISS,718
16398fbb442079,0,1,illegal_key,83,https://d3uxfe7dw0hhy7.cloudfront.net/annie-helms/eng_perception_stimuli/F6_st3,447,20,OK,ponDISS,691
16398fbb442079,0,1,illegal_key,84,https://d3uxfe7dw0hhy7.cloudfront.net/annie-helms/eng_perception_stimuli/F1_st1,451,15,OK,PONdiss,577
16398fbb442079,0,1,illegal_key,85,https://d3uxfe7dw0hhy7.cloudfront.net/annie-helms/eng_perception_stimuli/F6_st6,447,20,OK,ponDISS,591
16398fbb442079,0,1,illegal_key,86,https://d3uxfe7dw0hhy7.cloudfront.net/annie-helms/eng_perception_stimuli/F4_dur6,368,25,OK,ponDISS,545
16398fbb442079,0,1,illegal_key,87,https://d3uxfe7dw0hhy7.cloudfront.net/annie-helms/eng_perception_stimuli/st5_dur2,431,20,OK,ponDISS,695
16398fbb442079,0,1,illegal_key,88,https://d3uxfe7dw0hhy7.cloudfront.net/annie-helms/eng_perception_stimuli/F4_st4,446,20,OK,ponDISS,831
16398fbb442079,0,1,illegal_key,89,https://d3uxfe7dw0hhy7.cloudfront.net/annie-helms/eng_perception_stimuli/st2_dur6,373,20,OK,ponDISS,626
16398fbb442079,0,1,illegal_key,90,https://d3uxfe7dw0hhy7.cloudfront.net/annie-helms/eng_perception_stimuli/st1_dur5,381,15,OK,ponDISS,568
16398fbb442079,0,1,illegal_key,91,https://d3uxfe7dw0hhy7.cloudfront.net/annie-helms/eng_perception_stimuli/F5_dur1,445,20,OK,ponDISS,773
16398fbb442079,0,1,illegal_key,92,https://d3uxfe7dw0hhy7.cloudfront.net/annie-helms/eng_perception_stimuli/F4_dur3,417,15,OK,ponDISS,635
16398fbb442079,0,1,illegal_key,93,https://d3uxfe7dw0hhy7.cloudfront.net/annie-helms/eng_perception_stimuli/st1_dur4,403,20,OK,ponDISS,593
16398fbb442079,0,1,illegal_key,94,https://d3uxfe7dw0hhy7.cloudfront.net/annie-helms/eng_perception_stimuli/st1_dur3,423,20,OK,ponDISS,670
16398fbb442079,0,1,illegal_key,95,https://d3uxfe7dw0hhy7.cloudfront.net/annie-helms/eng_perception_stimuli/st3_dur2,431,20,OK,ponDISS,673
16398fbb442079,0,1,illegal_key,96,https://d3uxfe7dw0hhy7.cloudfront.net/annie-helms/eng_perception_stimuli/F5_dur2,431,20,OK,ponDISS,623
16398fbb442079,0,1,illegal_key,97,https://d3uxfe7dw0hhy7.cloudfront.net/annie-helms/eng_perception_stimuli/F5_st5,447,25,OK,ponDISS,624
16398fbb442079,0,1,illegal_key,98,https://d3uxfe7dw0hhy7.cloudfront.net/annie-helms/eng_perception_stimuli/F5_st3,447,20,OK,ponDISS,573
16398fbb442079,0,1,illegal_key,99,https://d3uxfe7dw0hhy7.cloudfront.net/annie-helms/eng_perception_stimuli/F3_dur6,374,25,OK,PONdiss,795
16398fbb442079,0,1,illegal_key,100,https://d3uxfe7dw0hhy7.cloudfront.net/annie-helms/eng_perception_stimuli/F4_st3,452,20,OK,ponDISS,682
16398fbb442079,0,1,illegal_key,101,https://d3uxfe7dw0hhy7.cloudfront.net/annie-helms/eng_perception_stimuli/F4_st5,446,20,OK,ponDISS,688
16398fbb442079,0,1,illegal_key,102,https://d3uxfe7dw0hhy7.cloudfront.net/annie-helms/eng_perception_stimuli/F2_st2,452,15,OK,PONdiss,958
16398fbb442079,0,1,illegal_key,103,https://d3uxfe7dw0hhy7.cloudfront.net/annie-helms/eng_perception_stimuli/F6_dur4,397,30,OK,ponDISS,743
16398fbb442079,0,1,illegal_key,104,https://d3uxfe7dw0hhy7.cloudfront.net/annie-helms/eng_perception_stimuli/F3_st1,452,15,OK,PONdiss,865
16398fbb442079,0,1,illegal_key,105,https://d3uxfe7dw0hhy7.cloudfront.net/annie-helms/eng_perception_stimuli/st6_dur6,367,20,OK,ponDISS,824
16398fbb442079,0,1,illegal_key,106,https://d3uxfe7dw0hhy7.cloudfront.net/annie-helms/eng_perception_stimuli/st6_dur1,445,20,OK,ponDISS,721
16398fbb442079,0,1,illegal_key,107,https://d3uxfe7dw0hhy7.cloudfront.net/annie-helms/eng_perception_stimuli/F5_dur4,404,15,OK,ponDISS,730
16398fbb442079,0,1,illegal_key,0,https://d3uxfe7dw0hhy7.cloudfront.net/annie-helms/eng_perception_stimuli/st3_dur3,417,25,OK,ponDISS,924
16398fbb442079,0,1,illegal_key,1,https://d3uxfe7dw0hhy7.cloudfront.net/annie-helms/eng_perception_stimuli/F2_st4,452,20,OK,PONdiss,597
16398fbb442079,0,1,illegal_key,2,https://d3uxfe7dw0hhy7.cloudfront.net/annie-helms/eng_perception_stimuli/F6_st2,447,20,OK,ponDISS,610
16398fbb442079,0,1,illegal_key,3,https://d3uxfe7dw0hhy7.cloudfront.net/annie-helms/eng_perception_stimuli/F5_dur1,445,20,OK,ponDISS,621
16398fbb442079,0,1,illegal_key,4,https://d3uxfe7dw0hhy7.cloudfront.net/annie-helms/eng_perception_stimuli/F2_dur2,437,20,OK,PONdiss,693
16398fbb442079,0,1,illegal_key,5,https://d3uxfe7dw0hhy7.cloudfront.net/annie-helms/eng_perception_stimuli/F5_st1,447,20,OK,ponDISS,893
16398fbb442079,0,1,illegal_key,6,https://d3uxfe7dw0hhy7.cloudfront.net/annie-helms/eng_perception_stimuli/st5_dur2,431,25,OK,ponDISS,788
16398fbb442079,0,1,illegal_key,7,https://d3uxfe7dw0hhy7.cloudfront.net/annie-helms/eng_perception_stimuli/F4_dur6,368,25,OK,ponDISS,630
16398fbb442079,0,1,illegal_key,8,https://d3uxfe7dw0hhy7.cloudfront.net/annie-helms/eng_perception_stimuli/F2_dur1,451,20,OK,PONdiss,608
16398fbb442079,0,1,illegal_key,9,https://d3uxfe7dw0hhy7.cloudfront.net/annie-helms/eng_perception_stimuli/F4_st3,452,15,OK,ponDISS,920
16398fbb442079,0,1,illegal_key,10,https://d3uxfe7dw0hhy7.cloudfront.net/annie-helms/eng_perception_stimuli/F5_dur5,382,15,OK,ponDISS,601
16398fbb442079,0,1,illegal_key,11,https://d3uxfe7dw0hhy7.cloudfront.net/annie-helms/eng_perception_stimuli/F1_st2,451,20,OK,PONdiss,629
16398fbb442079,0,1,illegal_key,12,https://d3uxfe7dw0hhy7.cloudfront.net/annie-helms/eng_perception_stimuli/st2_dur6,373,20,OK,ponDISS,615
16398fbb442079,0,1,illegal_key,13,https://d3uxfe7dw0hhy7.cloudfront.net/annie-helms/eng_perception_stimuli/F3_dur4,403,20,OK,ponDISS,674
16398fbb442079,0,1,illegal_key,14,https://d3uxfe7dw0hhy7.cloudfront.net/annie-helms/eng_perception_stimuli/F2_dur5,381,20,OK,ponDISS,739
16398fbb442079,0,1,illegal_key,15,https://d3uxfe7dw0hhy7.cloudfront.net/annie-helms/eng_perception_stimuli/F6_st5,447,20,OK,ponDISS,610
16398fbb442079,0,1,illegal_key,16,https://d3uxfe7dw0hhy7.cloudfront.net/annie-helms/eng_perception_stimuli/st6_dur3,417,15,OK,ponDISS,715
16398fbb442079,0,1,illegal_key,17,https://d3uxfe7dw0hhy7.cloudfront.net/annie-helms/eng_perception_stimuli/F1_st4,451,15,OK,PONdiss,886
16398fbb442079,0,1,illegal_key,18,https://d3uxfe7dw0hhy7.cloudfront.net/annie-helms/eng_perception_stimuli/F3_st4,452,25,OK,ponDISS,849
16398fbb442079,0,1,illegal_key,19,https://d3uxfe7dw0hhy7.cloudfront.net/annie-helms/eng_perception_stimuli/st4_dur6,367,20,OK,ponDISS,871
16398fbb442079,0,1,illegal_key,20,https://d3uxfe7dw0hhy7.cloudfront.net/annie-helms/eng_perception_stimuli/st3_dur4,403,30,OK,ponDISS,670
16398fbb442079,0,1,illegal_key,21,https://d3uxfe7dw0hhy7.cloudfront.net/annie-helms/eng_perception_stimuli/F1_st1,451,30,OK,PONdiss,632
16398fbb442079,0,1,illegal_key,22,https://d3uxfe7dw0hhy7.cloudfront.net/annie-helms/eng_perception_stimuli/F2_dur3,423,20,OK,PONdiss,614
16398fbb442079,0,1,illegal_key,23,https://d3uxfe7dw0hhy7.cloudfront.net/annie-helms/eng_perception_stimuli/F2_st5,452,25,OK,PONdiss,576
16398fbb442079,0,1,illegal_key,24,https://d3uxfe7dw0hhy7.cloudfront.net/annie-helms/eng_perception_stimuli/F5_st2,447,20,OK,ponDISS,663
16398fbb442079,0,1,illegal_key,25,https://d3uxfe7dw0hhy7.cloudfront.net/annie-helms/eng_perception_stimuli/F5_dur3,418,25,OK,ponDISS,681
16398fbb442079,0,1,illegal_key,26,https://d3uxfe7dw0hhy7.cloudfront.net/annie-helms/eng_perception_stimuli/F6_st3,447,25,OK,ponDISS,640
16398fbb442079,0,1,illegal_key,27,https://d3uxfe7dw0hhy7.cloudfront.net/annie-helms/eng_perception_stimuli/st5_dur5,381,20,OK,ponDISS,634
16398fbb442079,0,1,illegal_key,28,https://d3uxfe7dw0hhy7.cloudfront.net/annie-helms/eng_perception_stimuli/st5_dur1,445,20,OK,ponDISS,577
16398fbb442079,0,1,illegal_key,29,https://d3uxfe7dw0hhy7.cloudfront.net/annie-helms/eng_perception_stimuli/st2_dur1,445,15,OK,ponDISS,574
16398fbb442079,0,1,illegal_key,30,https://d3uxfe7dw0hhy7.cloudfront.net/annie-helms/eng_perception_stimuli/st2_dur3,417,15,OK,ponDISS,658
16398fbb442079,0,1,illegal_key,31,https://d3uxfe7dw0hhy7.cloudfront.net/annie-helms/eng_perception_stimuli/F3_st3,452,20,OK,ponDISS,747
16398fbb442079,0,1,illegal_key,32,https://d3uxfe7dw0hhy7.cloudfront.net/annie-helms/eng_perception_stimuli/st6_dur1,445,15,OK,ponDISS,541
16398fbb442079,0,1,illegal_key,33,https://d3uxfe7dw0hhy7.cloudfront.net/annie-helms/eng_perception_stimuli/st1_dur4,403,20,OK,ponDISS,684
16398fbb442079,0,1,illegal_key,34,https://d3uxfe7dw0hhy7.cloudfront.net/annie-helms/eng_perception_stimuli/F6_dur6,369,25,OK,ponDISS,648
16398fbb442079,0,1,illegal_key,35,https://d3uxfe7dw0hhy7.cloudfront.net/annie-helms/eng_perception_stimuli/F6_dur4,397,20,OK,ponDISS,579
16398fbb442079,0,1,illegal_key,36,https://d3uxfe7dw0hhy7.cloudfront.net/annie-helms/eng_perception_stimuli/F6_dur2,432,20,OK,ponDISS,563
16398fbb442079,0,1,illegal_key,37,https://d3uxfe7dw0hhy7.cloudfront.net/annie-helms/eng_perception_stimuli/F4_st2,452,25,OK,ponDISS,582
16398fbb442079,0,1,illegal_key,38,https://d3uxfe7dw0hhy7.cloudfront.net/annie-helms/eng_perception_stimuli/st5_dur3,417,15,OK,ponDISS,566
16398fbb442079,0,1,illegal_key,39,https://d3uxfe7dw0hhy7.cloudfront.net/annie-helms/eng_perception_stimuli/F1_dur5,380,25,OK,PONdiss,537
16398fbb442079,0,1,illegal_key,40,https://d3uxfe7dw0hhy7.cloudfront.net/annie-helms/eng_perception_stimuli/st4_dur1,445,20,OK,ponDISS,553
16398fbb442079,0,1,illegal_key,41,https://d3uxfe7dw0hhy7.cloudfront.net/annie-helms/eng_perception_stimuli/F4_dur2,431,20,OK,ponDISS,607
16398fbb442079,0,1,illegal_key,42,https://d3uxfe7dw0hhy7.cloudfront.net/annie-helms/eng_perception_stimuli/st2_dur2,437,25,OK,ponDISS,726
16398fbb442079,0,1,illegal_key,43,https://d3uxfe7dw0hhy7.cloudfront.net/annie-helms/eng_perception_stimuli/st6_dur6,367,20,OK,ponDISS,646
16398fbb442079,0,1,illegal_key,44,https://d3uxfe7dw0hhy7.cloudfront.net/annie-helms/eng_perception_stimuli/F1_st6,451,20,OK,PONdiss,619
16398fbb442079,0,1,illegal_key,45,https://d3uxfe7dw0hhy7.cloudfront.net/annie-helms/eng_perception_stimuli/F5_st6,447,25,OK,ponDISS,692
16398fbb442079,0,1,illegal_key,46,https://d3uxfe7dw0hhy7.cloudfront.net/annie-helms/eng_perception_stimuli/F3_dur3,417,20,OK,ponDISS,732
16398fbb442079,0,1,illegal_key,47,https://d3uxfe7dw0hhy7.cloudfront.net/annie-helms/eng_perception_stimuli/st6_dur4,403,20,OK,ponDISS,579
16398fbb442079,0,1,illegal_key,48,https://d3uxfe7dw0hhy7.cloudfront.net/annie-helms/eng_perception_stimuli/F1_dur1,444,15,OK,PONdiss,623
16398fbb442079,0,1,illegal_key,49,https://d3uxfe7dw0hhy7.cloudfront.net/annie-helms/eng_perception_stimuli/F4_st6,446,25,OK,ponDISS,648
16398fbb442079,0,1,illegal_key,50,https://d3uxfe7dw0hhy7.cloudfront.net/annie-helms/eng_perception_stimuli/F2_st2,452,20,OK,PONdiss,681
16398fbb442079,0,1,illegal_key,51,https://d3uxfe7dw0hhy7.cloudfront.net/annie-helms/eng_perception_stimuli/F4_st5,446,15,OK,ponDISS,677
16398fbb442079,0,1,illegal_key,52,https://d3uxfe7dw0hhy7.cloudfront.net/annie-helms/eng_perception_stimuli/st1_dur5,381,15,OK,ponDISS,697
16398fbb442079,0,1,illegal_key,53,https://d3uxfe7dw0hhy7.cloudfront.net/annie-helms/eng_perception_stimuli/F5_dur4,404,15,OK,ponDISS,605
16398fbb442079,0,1,illegal_key,54,https://d3uxfe7dw0hhy7.cloudfront.net/annie-helms/eng_perception_stimuli/F6_st1,447,20,OK,ponDISS,831
16398fbb442079,0,1,illegal_key,55,https://d3uxfe7dw0hhy7.cloudfront.net/annie-helms/eng_perception_stimuli/F3_dur1,445,20,OK,PONdiss,891
16398fbb442079,0,1,illegal_key,56,https://d3uxfe7dw0hhy7.cloudfront.net/annie-helms/eng_perception_stimuli/F6_dur1,446,15,OK,ponDISS,743
16398fbb442079,0,1,illegal_key,57,https://d3uxfe7dw0hhy7.cloudfront.net/annie-helms/eng_perception_stimuli/F4_st1,452,15,OK,ponDISS,752
16398fbb442079,0,1,illegal_key,58,https://d3uxfe7dw0hhy7.cloudfront.net/annie-helms/eng_perception_stimuli/F3_st6,452,25,OK,PONdiss,836
16398fbb442079,0,1,illegal_key,59,https://d3uxfe7dw0hhy7.cloudfront.net/annie-helms/eng_perception_stimuli/st3_dur5,381,20,OK,ponDISS,768
16398fbb442079,0,1,illegal_key,60,https://d3uxfe7dw0hhy7.cloudfront.net/annie-helms/eng_perception_stimuli/st2_dur5,381,25,OK,ponDISS,582
16398fbb442079,0,1,illegal_key,61,https://d3uxfe7dw0hhy7.cloudfront.net/annie-helms/eng_perception_stimuli/st3_dur2,431,20,OK,ponDISS,578
16398fbb442079,0,1,illegal_key,62,https://d3uxfe7dw0hhy7.cloudfront.net/annie-helms/eng_perception_stimuli/F4_st4,446,20,OK,ponDISS,514
16398fbb442079,0,1,illegal_key,63,https://d3uxfe7dw0hhy7.cloudfront.net/annie-helms/eng_perception_stimuli/F3_dur5,381,25,OK,ponDISS,540
16398fbb442079,0,1,illegal_key,64,https://d3uxfe7dw0hhy7.cloudfront.net/annie-helms/eng_perception_stimuli/F3_st1,452,20,OK,ponDISS,612
16398fbb442079,0,1,illegal_key,65,https://d3uxfe7dw0hhy7.cloudfront.net/annie-helms/eng_perception_stimuli/F1_dur6,372,20,OK,PONdiss,791
16398fbb442079,0,1,illegal_key,66,https://d3uxfe7dw0hhy7.cloudfront.net/annie-helms/eng_perception_stimuli/st1_dur6,373,15,OK,ponDISS,788
16398fbb442079,0,1,illegal_key,67,https://d3uxfe7dw0hhy7.cloudfront.net/annie-helms/eng_perception_stimuli/F5_dur6,368,20,OK,ponDISS,627
16398fbb442079,0,1,illegal_key,68,https://d3uxfe7dw0hhy7.cloudfront.net/annie-helms/eng_perception_stimuli/F2_dur4,403,25,OK,PONdiss,683
16398fbb442079,0,1,illegal_key,69,https://d3uxfe7dw0hhy7.cloudfront.net/annie-helms/eng_perception_stimuli/F1_dur4,402,20,OK,PONdiss,705
16398fbb442079,0,1,illegal_key,70,https://d3uxfe7dw0hhy7.cloudfront.net/annie-helms/eng_perception_stimuli/F2_st1,452,15,OK,PONdiss,576
16398fbb442079,0,1,illegal_key,71,https://d3uxfe7dw0hhy7.cloudfront.net/annie-helms/eng_perception_stimuli/st2_dur4,403,20,OK,PONdiss,533
16398fbb442079,0,1,illegal_key,72,https://d3uxfe7dw0hhy7.cloudfront.net/annie-helms/eng_perception_stimuli/F3_dur2,431,25,OK,PONdiss,568
16398fbb442079,0,1,illegal_key,73,https://d3uxfe7dw0hhy7.cloudfront.net/annie-helms/eng_perception_stimuli/st5_dur6,367,20,OK,ponDISS,639
16398fbb442079,0,1,illegal_key,74,https://d3uxfe7dw0hhy7.cloudfront.net/annie-helms/eng_perception_stimuli/F4_dur4,403,15,OK,ponDISS,643
16398fbb442079,0,1,illegal_key,75,https://d3uxfe7dw0hhy7.cloudfront.net/annie-helms/eng_perception_stimuli/F4_dur3,417,15,OK,ponDISS,727
16398fbb442079,0,1,illegal_key,76,https://d3uxfe7dw0hhy7.cloudfront.net/annie-helms/eng_perception_stimuli/F1_dur2,430,20,OK,PONdiss,549
16398fbb442079,0,1,illegal_key,77,https://d3uxfe7dw0hhy7.cloudfront.net/annie-helms/eng_perception_stimuli/st4_dur4,403,25,OK,ponDISS,665
16398fbb442079,0,1,illegal_key,78,https://d3uxfe7dw0hhy7.cloudfront.net/annie-helms/eng_perception_stimuli/st1_dur3,423,20,OK,ponDISS,796
16398fbb442079,0,1,illegal_key,79,https://d3uxfe7dw0hhy7.cloudfront.net/annie-helms/eng_perception_stimuli/F3_dur6,374,25,OK,ponDISS,737
16398fbb442079,0,1,illegal_key,80,https://d3uxfe7dw0hhy7.cloudfront.net/annie-helms/eng_perception_stimuli/F3_st2,452,15,OK,ponDISS,664
16398fbb442079,0,1,illegal_key,81,https://d3uxfe7dw0hhy7.cloudfront.net/annie-helms/eng_perception_stimuli/st4_dur3,417,20,OK,ponDISS,662
16398fbb442079,0,1,illegal_key,82,https://d3uxfe7dw0hhy7.cloudfront.net/annie-helms/eng_perception_stimuli/F6_dur5,382,20,OK,PONdiss,830
16398fbb442079,0,1,illegal_key,83,https://d3uxfe7dw0hhy7.cloudfront.net/annie-helms/eng_perception_stimuli/F5_st4,447,20,OK,ponDISS,877
16398fbb442079,0,1,illegal_key,84,https://d3uxfe7dw0hhy7.cloudfront.net/annie-helms/eng_perception_stimuli/F5_st5,447,20,OK,ponDISS,661
16398fbb442079,0,1,illegal_key,85,https://d3uxfe7dw0hhy7.cloudfront.net/annie-helms/eng_perception_stimuli/F5_st3,447,20,OK,ponDISS,880
16398fbb442079,0,1,illegal_key,86,https://d3uxfe7dw0hhy7.cloudfront.net/annie-helms/eng_perception_stimuli/st4_dur5,381,20,OK,ponDISS,819
16398fbb442079,0,1,illegal_key,87,https://d3uxfe7dw0hhy7.cloudfront.net/annie-helms/eng_perception_stimuli/st1_dur1,450,15,OK,ponDISS,670
16398fbb442079,0,1,illegal_key,88,https://d3uxfe7dw0hhy7.cloudfront.net/annie-helms/eng_perception_stimuli/F2_st3,452,30,OK,PONdiss,706
16398fbb442079,0,1,illegal_key,89,https://d3uxfe7dw0hhy7.cloudfront.net/annie-helms/eng_perception_stimuli/F2_dur6,373,30,OK,PONdiss,944
16398fbb442079,0,1,illegal_key,90,https://d3uxfe7dw0hhy7.cloudfront.net/annie-helms/eng_perception_stimuli/st1_dur2,436,25,OK,PONdiss,803
16398fbb442079,0,1,illegal_key,91,https://d3uxfe7dw0hhy7.cloudfront.net/annie-helms/eng_perception_stimuli/st5_dur4,403,25,OK,ponDISS,826
16398fbb442079,0,1,illegal_key,92,https://d3uxfe7dw0hhy7.cloudfront.net/annie-helms/eng_perception_stimuli/st6_dur2,431,20,OK,ponDISS,660
16398fbb442079,0,1,illegal_key,93,https://d3uxfe7dw0hhy7.cloudfront.net/annie-helms/eng_perception_stimuli/F5_dur2,431,25,OK,ponDISS,660
16398fbb442079,0,1,illegal_key,94,https://d3uxfe7dw0hhy7.cloudfront.net/annie-helms/eng_perception_stimuli/F1_st5,451,25,OK,PONdiss,715
16398fbb442079,0,1,illegal_key,95,https://d3uxfe7dw0hhy7.cloudfront.net/annie-helms/eng_perception_stimuli/F6_dur3,418,20,OK,ponDISS,1044
16398fbb442079,0,1,illegal_key,96,https://d3uxfe7dw0hhy7.cloudfront.net/annie-helms/eng_perception_stimuli/F6_st4,447,25,OK,ponDISS,838
16398fbb442079,0,1,illegal_key,97,https://d3uxfe7dw0hhy7.cloudfront.net/annie-helms/eng_perception_stimuli/F2_st6,452,15,OK,PONdiss,879
16398fbb442079,0,1,illegal_key,98,https://d3uxfe7dw0hhy7.cloudfront.net/annie-helms/eng_perception_stimuli/F4_dur5,382,15,OK,ponDISS,754
16398fbb442079,0,1,illegal_key,99,https://d3uxfe7dw0hhy7.cloudfront.net/annie-helms/eng_perception_stimuli/F3_st5,452,20,OK,ponDISS,937
16398fbb442079,0,1,illegal_key,100,https://d3uxfe7dw0hhy7.cloudfront.net/annie-helms/eng_perception_stimuli/st3_dur1,445,15,OK,ponDISS,658
16398fbb442079,0,1,illegal_key,101,https://d3uxfe7dw0hhy7.cloudfront.net/annie-helms/eng_perception_stimuli/F1_st3,451,15,OK,PONdiss,666
16398fbb442079,0,1,illegal_key,102,https://d3uxfe7dw0hhy7.cloudfront.net/annie-helms/eng_perception_stimuli/F4_dur1,445,15,OK,ponDISS,867
16398fbb442079,0,1,illegal_key,103,https://d3uxfe7dw0hhy7.cloudfront.net/annie-helms/eng_perception_stimuli/st3_dur6,367,15,OK,ponDISS,988
16398fbb442079,0,1,illegal_key,104,https://d3uxfe7dw0hhy7.cloudfront.net/annie-helms/eng_perception_stimuli/st6_dur5,381,15,OK,ponDISS,720
16398fbb442079,0,1,illegal_key,105,https://d3uxfe7dw0hhy7.cloudfront.net/annie-helms/eng_perception_stimuli/F6_st6,447,20,OK,ponDISS,704
16398fbb442079,0,1,illegal_key,106,https://d3uxfe7dw0hhy7.cloudfront.net/annie-helms/eng_perception_stimuli/F1_dur3,422,15,OK,PONdiss,575
16398fbb442079,0,1,illegal_key,107,https://d3uxfe7dw0hhy7.cloudfront.net/annie-helms/eng_perception_stimuli/st4_dur2,431,15,OK,ponDISS,821
163a0ae87a5be3,com113,1,illegal_key,0,https://d3uxfe7dw0hhy7.cloudfront.net/annie-helms/practice_2AFC/convict_stress0_1,538,665,OK,CONvict,3654
163a0ae87a5be3,com113,1,illegal_key,1,https://d3uxfe7dw0hhy7.cloudfront.net/annie-helms/practice_2AFC/convict_stress0_1,538,10,OK,CONvict,1079
163a0ae87a5be3,com113,1,illegal_key,2,https://d3uxfe7dw0hhy7.cloudfront.net/annie-helms/practice_2AFC/convict_stress1_2,429,535,OK,conVICT,864
163a0ae87a5be3,com113,1,illegal_key,3,https://d3uxfe7dw0hhy7.cloudfront.net/annie-helms/practice_2AFC/convict_stress1_1,450,570,OK,conVICT,1274
163a0ae87a5be3,com113,1,illegal_key,4,https://d3uxfe7dw0hhy7.cloudfront.net/annie-helms/practice_2AFC/convict_stress1_2,429,10,OK,conVICT,868
163a0ae87a5be3,com113,1,illegal_key,5,https://d3uxfe7dw0hhy7.cloudfront.net/annie-helms/practice_2AFC/convict_stress0_2,559,570,OK,CONvict,907
163a0ae87a5be3,com113,1,illegal_key,0,https://d3uxfe7dw0hhy7.cloudfront.net/annie-helms/eng_perception_stimuli/st5_dur2,431,615,OK,ponDISS,1821
163a0ae87a5be3,com113,1,illegal_key,1,https://d3uxfe7dw0hhy7.cloudfront.net/annie-helms/eng_perception_stimuli/F3_st4,452,580,OK,PONdiss,1180
163a0ae87a5be3,com113,1,illegal_key,2,https://d3uxfe7dw0hhy7.cloudfront.net/annie-helms/eng_perception_stimuli/F1_dur1,444,520,OK,PONdiss,803
163a0ae87a5be3,com113,1,illegal_key,3,https://d3uxfe7dw0hhy7.cloudfront.net/annie-helms/eng_perception_stimuli/F3_st5,452,535,OK,PONdiss,745
163a0ae87a5be3,com113,1,illegal_key,4,https://d3uxfe7dw0hhy7.cloudfront.net/annie-helms/eng_perception_stimuli/st4_dur3,417,545,OK,PONdiss,775
163a0ae87a5be3,com113,1,illegal_key,5,https://d3uxfe7dw0hhy7.cloudfront.net/annie-helms/eng_perception_stimuli/F3_dur4,403,535,OK,PONdiss,830
163a0ae87a5be3,com113,1,illegal_key,6,https://d3uxfe7dw0hhy7.cloudfront.net/annie-helms/eng_perception_stimuli/st1_dur2,436,545,OK,PONdiss,815
163a0ae87a5be3,com113,1,illegal_key,7,https://d3uxfe7dw0hhy7.cloudfront.net/annie-helms/eng_perception_stimuli/F2_dur1,451,535,OK,PONdiss,763
163a0ae87a5be3,com113,1,illegal_key,8,https://d3uxfe7dw0hhy7.cloudfront.net/annie-helms/eng_perception_stimuli/F3_dur2,431,540,OK,PONdiss,691
163a0ae87a5be3,com113,1,illegal_key,9,https://d3uxfe7dw0hhy7.cloudfront.net/annie-helms/eng_perception_stimuli/st2_dur3,417,545,OK,PONdiss,720
163a0ae87a5be3,com113,1,illegal_key,10,https://d3uxfe7dw0hhy7.cloudfront.net/annie-helms/eng_perception_stimuli/F6_dur3,418,540,OK,PONdiss,1042
163a0ae87a5be3,com113,1,illegal_key,11,https://d3uxfe7dw0hhy7.cloudfront.net/annie-helms/eng_perception_stimuli/st6_dur2,431,555,OK,PONdiss,702
163a0ae87a5be3,com113,1,illegal_key,12,https://d3uxfe7dw0hhy7.cloudfront.net/annie-helms/eng_perception_stimuli/F6_st3,447,540,OK,PONdiss,937
163a0ae87a5be3,com113,1,illegal_key,13,https://d3uxfe7dw0hhy7.cloudfront.net/annie-helms/eng_perception_stimuli/F1_st5,451,525,OK,PONdiss,735
163a0ae87a5be3,com113,1,illegal_key,14,https://d3uxfe7dw0hhy7.cloudfront.net/annie-helms/eng_perception_stimuli/F1_dur6,372,560,OK,PONdiss,630
163a0ae87a5be3,com113,1,illegal_key,15,https://d3uxfe7dw0hhy7.cloudfront.net/annie-helms/eng_perception_stimuli/F5_st1,447,530,OK,PONdiss,892
163a0ae87a5be3,com113,1,illegal_key,16,https://d3uxfe7dw0hhy7.cloudfront.net/annie-helms/eng_perception_stimuli/st4_dur5,381,525,OK,PONdiss,793
163a0ae87a5be3,com113,1,illegal_key,17,https://d3uxfe7dw0hhy7.cloudfront.net/annie-helms/eng_perception_stimuli/F4_dur6,368,540,OK,PONdiss,826
163a0ae87a5be3,com113,1,illegal_key,18,https://d3uxfe7dw0hhy7.cloudfront.net/annie-helms/eng_perception_stimuli/F3_dur1,445,560,OK,PONdiss,820
163a0ae87a5be3,com113,1,illegal_key,19,https://d3uxfe7dw0hhy7.cloudfront.net/annie-helms/eng_perception_stimuli/F2_dur4,403,535,OK,PONdiss,683
163a0ae87a5be3,com113,1,illegal_key,20,https://d3uxfe7dw0hhy7.cloudfront.net/annie-helms/eng_perception_stimuli/st3_dur6,367,520,OK,PONdiss,718
163a0ae87a5be3,com113,1,illegal_key,21,https://d3uxfe7dw0hhy7.cloudfront.net/annie-helms/eng_perception_stimuli/st5_dur1,445,565,OK,PONdiss,681
163a0ae87a5be3,com113,1,illegal_key,22,https://d3uxfe7dw0hhy7.cloudfront.net/annie-helms/eng_perception_stimuli/st6_dur1,445,520,OK,PONdiss,663
163a0ae87a5be3,com113,1,illegal_key,23,https://d3uxfe7dw0hhy7.cloudfront.net/annie-helms/eng_perception_stimuli/F4_st4,446,530,OK,PONdiss,687
163a0ae87a5be3,com113,1,illegal_key,24,https://d3uxfe7dw0hhy7.cloudfront.net/annie-helms/eng_perception_stimuli/F2_st2,452,520,OK,PONdiss,779
163a0ae87a5be3,com113,1,illegal_key,25,https://d3uxfe7dw0hhy7.cloudfront.net/annie-helms/eng_perception_stimuli/F2_dur3,423,535,OK,PONdiss,675
163a0ae87a5be3,com113,1,illegal_key,26,https://d3uxfe7dw0hhy7.cloudfront.net/annie-helms/eng_perception_stimuli/st5_dur3,417,545,OK,PONdiss,522
163a0ae87a5be3,com113,1,illegal_key,27,https://d3uxfe7dw0hhy7.cloudfront.net/annie-helms/eng_perception_stimuli/st6_dur3,417,560,OK,PONdiss,636
163a0ae87a5be3,com113,1,illegal_key,28,https://d3uxfe7dw0hhy7.cloudfront.net/annie-helms/eng_perception_stimuli/F3_st2,452,540,OK,PONdiss,946
163a0ae87a5be3,com113,1,illegal_key,29,https://d3uxfe7dw0hhy7.cloudfront.net/annie-helms/eng_perception_stimuli/F4_dur3,417,535,OK,PONdiss,755
163a0ae87a5be3,com113,1,illegal_key,30,https://d3uxfe7dw0hhy7.cloudfront.net/annie-helms/eng_perception_stimuli/F3_dur6,374,585,OK,PONdiss,777
163a0ae87a5be3,com113,1,illegal_key,31,https://d3uxfe7dw0hhy7.cloudfront.net/annie-helms/eng_perception_stimuli/st5_dur5,381,545,OK,PONdiss,743
163a0ae87a5be3,com113,1,illegal_key,32,https://d3uxfe7dw0hhy7.cloudfront.net/annie-helms/eng_perception_stimuli/st1_dur6,373,595,OK,PONdiss,877
163a0ae87a5be3,com113,1,illegal_key,33,https://d3uxfe7dw0hhy7.cloudfront.net/annie-helms/eng_perception_stimuli/st3_dur4,403,535,OK,PONdiss,754
163a0ae87a5be3,com113,1,illegal_key,34,https://d3uxfe7dw0hhy7.cloudfront.net/annie-helms/eng_perception_stimuli/F5_st4,447,550,OK,PONdiss,769
163a0ae87a5be3,com113,1,illegal_key,35,https://d3uxfe7dw0hhy7.cloudfront.net/annie-helms/eng_perception_stimuli/F4_dur4,403,535,OK,PONdiss,683
