subjID,partID,list,block,trial,file1,filedur,loadtime,status,response,rt,response_binary,filename,formant,spectilt,duration,formant_center,spectilt_center,duration_center,lang_profile,pc1,pc2
263f10f5f44fad,rre101,2,1,0,https://d3uxfe7dw0hhy7.cloudfront.net/annie-helms/new_spanish/st3_dur1,420,15,OK,pondís,1128,ult,st3_dur1,3.0,3.0,1.0,0.0,0.0,-2.0,l3_eng,-4.6982062141367,3.4095528632139467
263f10f5f44fad,rre101,2,1,1,https://d3uxfe7dw0hhy7.cloudfront.net/annie-helms/new_spanish/F2_dur5,427,20,OK,pondís,1361,ult,F2_dur5,2.0,3.0,5.0,-1.0,0.0,2.0,l3_eng,-4.6982062141367,3.4095528632139467
263f10f5f44fad,rre101,2,1,2,https://d3uxfe7dw0hhy7.cloudfront.net/annie-helms/new_spanish/st5_dur3,421,20,OK,pondís,1601,ult,st5_dur3,3.0,5.0,3.0,0.0,2.0,0.0,l3_eng,-4.6982062141367,3.4095528632139467
263f10f5f44fad,rre101,2,1,3,https://d3uxfe7dw0hhy7.cloudfront.net/annie-helms/new_spanish/F1_st4,411,45,OK,pondís,1007,ult,F1_st4,1.0,4.0,3.0,-2.0,1.0,0.0,l3_eng,-4.6982062141367,3.4095528632139467
263f10f5f44fad,rre101,2,1,4,https://d3uxfe7dw0hhy7.cloudfront.net/annie-helms/new_spanish/st4_dur4,425,10,OK,pondís,983,ult,st4_dur4,3.0,4.0,4.0,0.0,1.0,1.0,l3_eng,-4.6982062141367,3.4095528632139467
263f10f5f44fad,rre101,2,1,5,https://d3uxfe7dw0hhy7.cloudfront.net/annie-helms/new_spanish/F4_st1,414,10,OK,pondís,954,ult,F4_st1,4.0,1.0,3.0,1.0,-2.0,0.0,l3_eng,-4.6982062141367,3.4095528632139467
263f10f5f44fad,rre101,2,1,6,https://d3uxfe7dw0hhy7.cloudfront.net/annie-helms/new_spanish/F5_dur3,420,20,OK,pondís,1238,ult,F5_dur3,5.0,3.0,3.0,2.0,0.0,0.0,l3_eng,-4.6982062141367,3.4095528632139467
263f10f5f44fad,rre101,2,1,8,https://d3uxfe7dw0hhy7.cloudfront.net/annie-helms/new_spanish/st1_dur1,420,20,OK,pondís,967,ult,st1_dur1,3.0,1.0,1.0,0.0,-2.0,-2.0,l3_eng,-4.6982062141367,3.4095528632139467
263f10f5f44fad,rre101,2,1,9,https://d3uxfe7dw0hhy7.cloudfront.net/annie-helms/new_spanish/st4_dur5,429,20,OK,pondís,1132,ult,st4_dur5,3.0,4.0,5.0,0.0,1.0,2.0,l3_eng,-4.6982062141367,3.4095528632139467
263f10f5f44fad,rre101,2,1,10,https://d3uxfe7dw0hhy7.cloudfront.net/annie-helms/new_spanish/F1_st3,411,20,OK,pondís,924,ult,F1_st3,1.0,3.0,3.0,-2.0,0.0,0.0,l3_eng,-4.6982062141367,3.4095528632139467
263f10f5f44fad,rre101,2,1,11,https://d3uxfe7dw0hhy7.cloudfront.net/annie-helms/new_spanish/F1_dur2,411,20,OK,pondís,898,ult,F1_dur2,1.0,3.0,2.0,-2.0,0.0,-1.0,l3_eng,-4.6982062141367,3.4095528632139467
263f10f5f44fad,rre101,2,1,12,https://d3uxfe7dw0hhy7.cloudfront.net/annie-helms/new_spanish/st2_dur1,420,20,OK,pondís,771,ult,st2_dur1,3.0,2.0,1.0,0.0,-1.0,-2.0,l3_eng,-4.6982062141367,3.4095528632139467
263f10f5f44fad,rre101,2,1,13,https://d3uxfe7dw0hhy7.cloudfront.net/annie-helms/new_spanish/F1_dur3,415,20,OK,pondís,1198,ult,F1_dur3,1.0,3.0,3.0,-2.0,0.0,0.0,l3_eng,-4.6982062141367,3.4095528632139467
263f10f5f44fad,rre101,2,1,14,https://d3uxfe7dw0hhy7.cloudfront.net/annie-helms/new_spanish/F2_dur3,419,20,OK,pondís,746,ult,F2_dur3,2.0,3.0,3.0,-1.0,0.0,0.0,l3_eng,-4.6982062141367,3.4095528632139467
263f10f5f44fad,rre101,2,1,15,https://d3uxfe7dw0hhy7.cloudfront.net/annie-helms/new_spanish/st3_dur3,421,20,OK,pondis,633,pen,st3_dur3,3.0,3.0,3.0,0.0,0.0,0.0,l3_eng,-4.6982062141367,3.4095528632139467
263f10f5f44fad,rre101,2,1,16,https://d3uxfe7dw0hhy7.cloudfront.net/annie-helms/new_spanish/st2_dur3,421,20,OK,pondis,896,pen,st2_dur3,3.0,2.0,3.0,0.0,-1.0,0.0,l3_eng,-4.6982062141367,3.4095528632139467
263f10f5f44fad,rre101,2,1,17,https://d3uxfe7dw0hhy7.cloudfront.net/annie-helms/new_spanish/st1_dur5,429,20,OK,pondís,864,ult,st1_dur5,3.0,1.0,5.0,0.0,-2.0,2.0,l3_eng,-4.6982062141367,3.4095528632139467
263f10f5f44fad,rre101,2,1,18,https://d3uxfe7dw0hhy7.cloudfront.net/annie-helms/new_spanish/F3_st1,417,20,OK,pondís,785,ult,F3_st1,3.0,1.0,3.0,0.0,-2.0,0.0,l3_eng,-4.6982062141367,3.4095528632139467
263f10f5f44fad,rre101,2,1,19,https://d3uxfe7dw0hhy7.cloudfront.net/annie-helms/new_spanish/F4_st5,414,20,OK,pondis,958,pen,F4_st5,4.0,5.0,3.0,1.0,2.0,0.0,l3_eng,-4.6982062141367,3.4095528632139467
263f10f5f44fad,rre101,2,1,20,https://d3uxfe7dw0hhy7.cloudfront.net/annie-helms/new_spanish/st5_dur2,418,20,OK,pondís,982,ult,st5_dur2,3.0,5.0,2.0,0.0,2.0,-1.0,l3_eng,-4.6982062141367,3.4095528632139467
263f10f5f44fad,rre101,2,1,21,https://d3uxfe7dw0hhy7.cloudfront.net/annie-helms/new_spanish/st4_dur1,420,20,OK,pondis,1015,pen,st4_dur1,3.0,4.0,1.0,0.0,1.0,-2.0,l3_eng,-4.6982062141367,3.4095528632139467
263f10f5f44fad,rre101,2,1,22,https://d3uxfe7dw0hhy7.cloudfront.net/annie-helms/new_spanish/F1_dur1,414,20,OK,pondis,276,pen,F1_dur1,1.0,3.0,1.0,-2.0,0.0,-2.0,l3_eng,-4.6982062141367,3.4095528632139467
263f10f5f44fad,rre101,2,1,23,https://d3uxfe7dw0hhy7.cloudfront.net/annie-helms/new_spanish/F1_st2,411,20,OK,pondis,235,pen,F1_st2,1.0,2.0,3.0,-2.0,-1.0,0.0,l3_eng,-4.6982062141367,3.4095528632139467
263f10f5f44fad,rre101,2,1,24,https://d3uxfe7dw0hhy7.cloudfront.net/annie-helms/new_spanish/st3_dur2,418,20,OK,pondís,645,ult,st3_dur2,3.0,3.0,2.0,0.0,0.0,-1.0,l3_eng,-4.6982062141367,3.4095528632139467
263f10f5f44fad,rre101,2,1,25,https://d3uxfe7dw0hhy7.cloudfront.net/annie-helms/new_spanish/F2_st2,415,20,OK,pondis,636,pen,F2_st2,2.0,2.0,3.0,-1.0,-1.0,0.0,l3_eng,-4.6982062141367,3.4095528632139467
263f10f5f44fad,rre101,2,1,26,https://d3uxfe7dw0hhy7.cloudfront.net/annie-helms/new_spanish/F4_st4,414,20,OK,pondis,623,pen,F4_st4,4.0,4.0,3.0,1.0,1.0,0.0,l3_eng,-4.6982062141367,3.4095528632139467
263f10f5f44fad,rre101,2,1,27,https://d3uxfe7dw0hhy7.cloudfront.net/annie-helms/new_spanish/F1_st1,411,10,OK,pondís,607,ult,F1_st1,1.0,1.0,3.0,-2.0,-2.0,0.0,l3_eng,-4.6982062141367,3.4095528632139467
263f10f5f44fad,rre101,2,1,28,https://d3uxfe7dw0hhy7.cloudfront.net/annie-helms/new_spanish/F3_dur2,418,25,OK,pondís,930,ult,F3_dur2,3.0,3.0,2.0,0.0,0.0,-1.0,l3_eng,-4.6982062141367,3.4095528632139467
263f10f5f44fad,rre101,2,1,29,https://d3uxfe7dw0hhy7.cloudfront.net/annie-helms/new_spanish/F3_dur1,420,25,OK,pondís,1022,ult,F3_dur1,3.0,3.0,1.0,0.0,0.0,-2.0,l3_eng,-4.6982062141367,3.4095528632139467
263f10f5f44fad,rre101,2,1,30,https://d3uxfe7dw0hhy7.cloudfront.net/annie-helms/new_spanish/F2_st5,415,20,OK,pondis,708,pen,F2_st5,2.0,5.0,3.0,-1.0,2.0,0.0,l3_eng,-4.6982062141367,3.4095528632139467
263f10f5f44fad,rre101,2,1,31,https://d3uxfe7dw0hhy7.cloudfront.net/annie-helms/new_spanish/F4_st3,414,20,OK,pondis,1026,pen,F4_st3,4.0,3.0,3.0,1.0,0.0,0.0,l3_eng,-4.6982062141367,3.4095528632139467
263f10f5f44fad,rre101,2,1,32,https://d3uxfe7dw0hhy7.cloudfront.net/annie-helms/new_spanish/st1_dur2,418,20,OK,pondis,550,pen,st1_dur2,3.0,1.0,2.0,0.0,-2.0,-1.0,l3_eng,-4.6982062141367,3.4095528632139467
263f10f5f44fad,rre101,2,1,33,https://d3uxfe7dw0hhy7.cloudfront.net/annie-helms/new_spanish/F5_st3,416,20,OK,pondis,833,pen,F5_st3,5.0,3.0,3.0,2.0,0.0,0.0,l3_eng,-4.6982062141367,3.4095528632139467
263f10f5f44fad,rre101,2,1,34,https://d3uxfe7dw0hhy7.cloudfront.net/annie-helms/new_spanish/F3_dur5,429,20,OK,pondis,833,pen,F3_dur5,3.0,3.0,5.0,0.0,0.0,2.0,l3_eng,-4.6982062141367,3.4095528632139467
263f10f5f44fad,rre101,2,1,35,https://d3uxfe7dw0hhy7.cloudfront.net/annie-helms/new_spanish/F2_dur1,418,20,OK,pondís,1003,ult,F2_dur1,2.0,3.0,1.0,-1.0,0.0,-2.0,l3_eng,-4.6982062141367,3.4095528632139467
263f10f5f44fad,rre101,2,1,37,https://d3uxfe7dw0hhy7.cloudfront.net/annie-helms/new_spanish/F4_dur5,426,20,OK,pondís,665,ult,F4_dur5,4.0,3.0,5.0,1.0,0.0,2.0,l3_eng,-4.6982062141367,3.4095528632139467
263f10f5f44fad,rre101,2,1,38,https://d3uxfe7dw0hhy7.cloudfront.net/annie-helms/new_spanish/F5_st4,416,20,OK,pondís,393,ult,F5_st4,5.0,4.0,3.0,2.0,1.0,0.0,l3_eng,-4.6982062141367,3.4095528632139467
263f10f5f44fad,rre101,2,1,39,https://d3uxfe7dw0hhy7.cloudfront.net/annie-helms/new_spanish/st5_dur1,420,20,OK,pondís,582,ult,st5_dur1,3.0,5.0,1.0,0.0,2.0,-2.0,l3_eng,-4.6982062141367,3.4095528632139467
263f10f5f44fad,rre101,2,1,40,https://d3uxfe7dw0hhy7.cloudfront.net/annie-helms/new_spanish/F3_dur4,425,20,OK,pondís,465,ult,F3_dur4,3.0,3.0,4.0,0.0,0.0,1.0,l3_eng,-4.6982062141367,3.4095528632139467
263f10f5f44fad,rre101,2,1,41,https://d3uxfe7dw0hhy7.cloudfront.net/annie-helms/new_spanish/F1_dur5,423,20,OK,pondís,785,ult,F1_dur5,1.0,3.0,5.0,-2.0,0.0,2.0,l3_eng,-4.6982062141367,3.4095528632139467
263f10f5f44fad,rre101,2,1,42,https://d3uxfe7dw0hhy7.cloudfront.net/annie-helms/new_spanish/st3_dur4,425,20,OK,pondís,336,ult,st3_dur4,3.0,3.0,4.0,0.0,0.0,1.0,l3_eng,-4.6982062141367,3.4095528632139467
263f10f5f44fad,rre101,2,1,43,https://d3uxfe7dw0hhy7.cloudfront.net/annie-helms/new_spanish/F5_dur1,420,20,OK,pondís,650,ult,F5_dur1,5.0,3.0,1.0,2.0,0.0,-2.0,l3_eng,-4.6982062141367,3.4095528632139467
263f10f5f44fad,rre101,2,1,44,https://d3uxfe7dw0hhy7.cloudfront.net/annie-helms/new_spanish/st2_dur5,429,20,OK,pondis,894,pen,st2_dur5,3.0,2.0,5.0,0.0,-1.0,2.0,l3_eng,-4.6982062141367,3.4095528632139467
263f10f5f44fad,rre101,2,1,45,https://d3uxfe7dw0hhy7.cloudfront.net/annie-helms/new_spanish/F5_dur5,428,20,OK,pondís,484,ult,F5_dur5,5.0,3.0,5.0,2.0,0.0,2.0,l3_eng,-4.6982062141367,3.4095528632139467
263f10f5f44fad,rre101,2,1,46,https://d3uxfe7dw0hhy7.cloudfront.net/annie-helms/new_spanish/F4_dur2,415,20,OK,pondís,405,ult,F4_dur2,4.0,3.0,2.0,1.0,0.0,-1.0,l3_eng,-4.6982062141367,3.4095528632139467
263f10f5f44fad,rre101,2,1,47,https://d3uxfe7dw0hhy7.cloudfront.net/annie-helms/new_spanish/F2_dur4,423,20,OK,pondís,455,ult,F2_dur4,2.0,3.0,4.0,-1.0,0.0,1.0,l3_eng,-4.6982062141367,3.4095528632139467
263f10f5f44fad,rre101,2,1,48,https://d3uxfe7dw0hhy7.cloudfront.net/annie-helms/new_spanish/F5_dur4,424,15,OK,pondís,315,ult,F5_dur4,5.0,3.0,4.0,2.0,0.0,1.0,l3_eng,-4.6982062141367,3.4095528632139467
263f10f5f44fad,rre101,2,1,49,https://d3uxfe7dw0hhy7.cloudfront.net/annie-helms/new_spanish/st5_dur5,429,20,OK,pondís,349,ult,st5_dur5,3.0,5.0,5.0,0.0,2.0,2.0,l3_eng,-4.6982062141367,3.4095528632139467
263f10f5f44fad,rre101,2,1,50,https://d3uxfe7dw0hhy7.cloudfront.net/annie-helms/new_spanish/F2_st3,415,20,OK,pondís,776,ult,F2_st3,2.0,3.0,3.0,-1.0,0.0,0.0,l3_eng,-4.6982062141367,3.4095528632139467
263f10f5f44fad,rre101,2,1,51,https://d3uxfe7dw0hhy7.cloudfront.net/annie-helms/new_spanish/st1_dur4,425,20,OK,pondís,894,ult,st1_dur4,3.0,1.0,4.0,0.0,-2.0,1.0,l3_eng,-4.6982062141367,3.4095528632139467
263f10f5f44fad,rre101,2,1,52,https://d3uxfe7dw0hhy7.cloudfront.net/annie-helms/new_spanish/F4_dur4,423,20,OK,pondís,1203,ult,F4_dur4,4.0,3.0,4.0,1.0,0.0,1.0,l3_eng,-4.6982062141367,3.4095528632139467
263f10f5f44fad,rre101,2,1,53,https://d3uxfe7dw0hhy7.cloudfront.net/annie-helms/new_spanish/F3_st2,417,15,OK,pondis,932,pen,F3_st2,3.0,2.0,3.0,0.0,-1.0,0.0,l3_eng,-4.6982062141367,3.4095528632139467
263f10f5f44fad,rre101,2,1,54,https://d3uxfe7dw0hhy7.cloudfront.net/annie-helms/new_spanish/st5_dur4,425,20,OK,pondís,633,ult,st5_dur4,3.0,5.0,4.0,0.0,2.0,1.0,l3_eng,-4.6982062141367,3.4095528632139467
263f10f5f44fad,rre101,2,1,55,https://d3uxfe7dw0hhy7.cloudfront.net/annie-helms/new_spanish/F4_dur3,419,15,OK,pondís,236,ult,F4_dur3,4.0,3.0,3.0,1.0,0.0,0.0,l3_eng,-4.6982062141367,3.4095528632139467
263f10f5f44fad,rre101,2,1,56,https://d3uxfe7dw0hhy7.cloudfront.net/annie-helms/new_spanish/F2_st4,415,10,OK,pondís,629,ult,F2_st4,2.0,4.0,3.0,-1.0,1.0,0.0,l3_eng,-4.6982062141367,3.4095528632139467
263f10f5f44fad,rre101,2,1,57,https://d3uxfe7dw0hhy7.cloudfront.net/annie-helms/new_spanish/F3_st4,417,20,OK,pondís,338,ult,F3_st4,3.0,4.0,3.0,0.0,1.0,0.0,l3_eng,-4.6982062141367,3.4095528632139467
263f10f5f44fad,rre101,2,1,58,https://d3uxfe7dw0hhy7.cloudfront.net/annie-helms/new_spanish/F5_st2,416,25,OK,pondís,462,ult,F5_st2,5.0,2.0,3.0,2.0,-1.0,0.0,l3_eng,-4.6982062141367,3.4095528632139467
263f10f5f44fad,rre101,2,1,59,https://d3uxfe7dw0hhy7.cloudfront.net/annie-helms/new_spanish/F2_st1,415,20,OK,pondis,901,pen,F2_st1,2.0,1.0,3.0,-1.0,-2.0,0.0,l3_eng,-4.6982062141367,3.4095528632139467
263f10f5f44fad,rre101,2,1,60,https://d3uxfe7dw0hhy7.cloudfront.net/annie-helms/new_spanish/F1_dur4,419,20,OK,pondís,541,ult,F1_dur4,1.0,3.0,4.0,-2.0,0.0,1.0,l3_eng,-4.6982062141367,3.4095528632139467
263f10f5f44fad,rre101,2,1,61,https://d3uxfe7dw0hhy7.cloudfront.net/annie-helms/new_spanish/F4_dur1,418,15,OK,pondís,691,ult,F4_dur1,4.0,3.0,1.0,1.0,0.0,-2.0,l3_eng,-4.6982062141367,3.4095528632139467
263f10f5f44fad,rre101,2,1,62,https://d3uxfe7dw0hhy7.cloudfront.net/annie-helms/new_spanish/F3_dur3,421,20,OK,pondís,789,ult,F3_dur3,3.0,3.0,3.0,0.0,0.0,0.0,l3_eng,-4.6982062141367,3.4095528632139467
263f10f5f44fad,rre101,2,1,63,https://d3uxfe7dw0hhy7.cloudfront.net/annie-helms/new_spanish/F5_st1,416,20,OK,pondís,697,ult,F5_st1,5.0,1.0,3.0,2.0,-2.0,0.0,l3_eng,-4.6982062141367,3.4095528632139467
263f10f5f44fad,rre101,2,1,64,https://d3uxfe7dw0hhy7.cloudfront.net/annie-helms/new_spanish/st4_dur2,418,20,OK,pondis,771,pen,st4_dur2,3.0,4.0,2.0,0.0,1.0,-1.0,l3_eng,-4.6982062141367,3.4095528632139467
263f10f5f44fad,rre101,2,1,65,https://d3uxfe7dw0hhy7.cloudfront.net/annie-helms/new_spanish/F3_st3,417,20,OK,pondis,732,pen,F3_st3,3.0,3.0,3.0,0.0,0.0,0.0,l3_eng,-4.6982062141367,3.4095528632139467
263f10f5f44fad,rre101,2,1,66,https://d3uxfe7dw0hhy7.cloudfront.net/annie-helms/new_spanish/st1_dur3,421,20,OK,pondis,472,pen,st1_dur3,3.0,1.0,3.0,0.0,-2.0,0.0,l3_eng,-4.6982062141367,3.4095528632139467
263f10f5f44fad,rre101,2,1,67,https://d3uxfe7dw0hhy7.cloudfront.net/annie-helms/new_spanish/F4_st2,414,20,OK,pondis,405,pen,F4_st2,4.0,2.0,3.0,1.0,-1.0,0.0,l3_eng,-4.6982062141367,3.4095528632139467
263f10f5f44fad,rre101,2,1,68,https://d3uxfe7dw0hhy7.cloudfront.net/annie-helms/new_spanish/F1_st5,411,20,OK,pondis,278,pen,F1_st5,1.0,5.0,3.0,-2.0,2.0,0.0,l3_eng,-4.6982062141367,3.4095528632139467
263f10f5f44fad,rre101,2,1,69,https://d3uxfe7dw0hhy7.cloudfront.net/annie-helms/new_spanish/F5_st5,416,20,OK,pondis,375,pen,F5_st5,5.0,5.0,3.0,2.0,2.0,0.0,l3_eng,-4.6982062141367,3.4095528632139467
263f10f5f44fad,rre101,2,1,70,https://d3uxfe7dw0hhy7.cloudfront.net/annie-helms/new_spanish/F5_dur2,417,10,OK,pondís,561,ult,F5_dur2,5.0,3.0,2.0,2.0,0.0,-1.0,l3_eng,-4.6982062141367,3.4095528632139467
263f10f5f44fad,rre101,2,1,71,https://d3uxfe7dw0hhy7.cloudfront.net/annie-helms/new_spanish/st3_dur5,429,20,OK,pondís,575,ult,st3_dur5,3.0,3.0,5.0,0.0,0.0,2.0,l3_eng,-4.6982062141367,3.4095528632139467
263f10f5f44fad,rre101,2,1,72,https://d3uxfe7dw0hhy7.cloudfront.net/annie-helms/new_spanish/st4_dur3,421,20,OK,pondis,579,pen,st4_dur3,3.0,4.0,3.0,0.0,1.0,0.0,l3_eng,-4.6982062141367,3.4095528632139467
263f10f5f44fad,rre101,2,1,73,https://d3uxfe7dw0hhy7.cloudfront.net/annie-helms/new_spanish/F3_st5,417,20,OK,pondís,241,ult,F3_st5,3.0,5.0,3.0,0.0,2.0,0.0,l3_eng,-4.6982062141367,3.4095528632139467
263f10f5f44fad,rre101,2,1,74,https://d3uxfe7dw0hhy7.cloudfront.net/annie-helms/new_spanish/st2_dur4,425,15,OK,pondis,500,pen,st2_dur4,3.0,2.0,4.0,0.0,-1.0,1.0,l3_eng,-4.6982062141367,3.4095528632139467
263f10f5f44fad,rre101,2,2,0,https://d3uxfe7dw0hhy7.cloudfront.net/annie-helms/new_spanish/st1_dur2,418,10,OK,pondís,940,ult,st1_dur2,3.0,1.0,2.0,0.0,-2.0,-1.0,l3_eng,-4.6982062141367,3.4095528632139467
263f10f5f44fad,rre101,2,2,1,https://d3uxfe7dw0hhy7.cloudfront.net/annie-helms/new_spanish/F2_st2,415,10,OK,pondis,716,pen,F2_st2,2.0,2.0,3.0,-1.0,-1.0,0.0,l3_eng,-4.6982062141367,3.4095528632139467
263f10f5f44fad,rre101,2,2,2,https://d3uxfe7dw0hhy7.cloudfront.net/annie-helms/new_spanish/F3_dur4,425,20,OK,pondís,886,ult,F3_dur4,3.0,3.0,4.0,0.0,0.0,1.0,l3_eng,-4.6982062141367,3.4095528632139467
263f10f5f44fad,rre101,2,2,3,https://d3uxfe7dw0hhy7.cloudfront.net/annie-helms/new_spanish/F5_dur4,424,20,OK,pondís,646,ult,F5_dur4,5.0,3.0,4.0,2.0,0.0,1.0,l3_eng,-4.6982062141367,3.4095528632139467
263f10f5f44fad,rre101,2,2,4,https://d3uxfe7dw0hhy7.cloudfront.net/annie-helms/new_spanish/F1_st5,411,20,OK,pondis,666,pen,F1_st5,1.0,5.0,3.0,-2.0,2.0,0.0,l3_eng,-4.6982062141367,3.4095528632139467
263f10f5f44fad,rre101,2,2,5,https://d3uxfe7dw0hhy7.cloudfront.net/annie-helms/new_spanish/F3_st4,417,20,OK,pondís,676,ult,F3_st4,3.0,4.0,3.0,0.0,1.0,0.0,l3_eng,-4.6982062141367,3.4095528632139467
263f10f5f44fad,rre101,2,2,6,https://d3uxfe7dw0hhy7.cloudfront.net/annie-helms/new_spanish/F1_st4,411,20,OK,pondís,420,ult,F1_st4,1.0,4.0,3.0,-2.0,1.0,0.0,l3_eng,-4.6982062141367,3.4095528632139467
263f10f5f44fad,rre101,2,2,7,https://d3uxfe7dw0hhy7.cloudfront.net/annie-helms/new_spanish/F2_dur5,427,15,OK,pondís,709,ult,F2_dur5,2.0,3.0,5.0,-1.0,0.0,2.0,l3_eng,-4.6982062141367,3.4095528632139467
263f10f5f44fad,rre101,2,2,8,https://d3uxfe7dw0hhy7.cloudfront.net/annie-helms/new_spanish/st1_dur5,429,15,OK,pondís,625,ult,st1_dur5,3.0,1.0,5.0,0.0,-2.0,2.0,l3_eng,-4.6982062141367,3.4095528632139467
263f10f5f44fad,rre101,2,2,9,https://d3uxfe7dw0hhy7.cloudfront.net/annie-helms/new_spanish/st3_dur4,425,20,OK,pondis,1024,pen,st3_dur4,3.0,3.0,4.0,0.0,0.0,1.0,l3_eng,-4.6982062141367,3.4095528632139467
263f10f5f44fad,rre101,2,2,10,https://d3uxfe7dw0hhy7.cloudfront.net/annie-helms/new_spanish/F2_st4,415,20,OK,pondis,1079,pen,F2_st4,2.0,4.0,3.0,-1.0,1.0,0.0,l3_eng,-4.6982062141367,3.4095528632139467
263f10f5f44fad,rre101,2,2,11,https://d3uxfe7dw0hhy7.cloudfront.net/annie-helms/new_spanish/F1_dur5,423,20,OK,pondis,690,pen,F1_dur5,1.0,3.0,5.0,-2.0,0.0,2.0,l3_eng,-4.6982062141367,3.4095528632139467
263f10f5f44fad,rre101,2,2,12,https://d3uxfe7dw0hhy7.cloudfront.net/annie-helms/new_spanish/F3_dur2,418,20,OK,pondís,532,ult,F3_dur2,3.0,3.0,2.0,0.0,0.0,-1.0,l3_eng,-4.6982062141367,3.4095528632139467
263f10f5f44fad,rre101,2,2,13,https://d3uxfe7dw0hhy7.cloudfront.net/annie-helms/new_spanish/st3_dur2,418,20,OK,pondís,505,ult,st3_dur2,3.0,3.0,2.0,0.0,0.0,-1.0,l3_eng,-4.6982062141367,3.4095528632139467
263f10f5f44fad,rre101,2,2,14,https://d3uxfe7dw0hhy7.cloudfront.net/annie-helms/new_spanish/F1_dur3,415,20,OK,pondis,568,pen,F1_dur3,1.0,3.0,3.0,-2.0,0.0,0.0,l3_eng,-4.6982062141367,3.4095528632139467
263f10f5f44fad,rre101,2,2,15,https://d3uxfe7dw0hhy7.cloudfront.net/annie-helms/new_spanish/F4_st1,414,25,OK,pondis,554,pen,F4_st1,4.0,1.0,3.0,1.0,-2.0,0.0,l3_eng,-4.6982062141367,3.4095528632139467
263f10f5f44fad,rre101,2,2,16,https://d3uxfe7dw0hhy7.cloudfront.net/annie-helms/new_spanish/F4_dur5,426,20,OK,pondis,514,pen,F4_dur5,4.0,3.0,5.0,1.0,0.0,2.0,l3_eng,-4.6982062141367,3.4095528632139467
263f10f5f44fad,rre101,2,2,17,https://d3uxfe7dw0hhy7.cloudfront.net/annie-helms/new_spanish/st3_dur3,421,20,OK,pondis,437,pen,st3_dur3,3.0,3.0,3.0,0.0,0.0,0.0,l3_eng,-4.6982062141367,3.4095528632139467
263f10f5f44fad,rre101,2,2,18,https://d3uxfe7dw0hhy7.cloudfront.net/annie-helms/new_spanish/st5_dur2,418,20,OK,pondis,351,pen,st5_dur2,3.0,5.0,2.0,0.0,2.0,-1.0,l3_eng,-4.6982062141367,3.4095528632139467
263f10f5f44fad,rre101,2,2,19,https://d3uxfe7dw0hhy7.cloudfront.net/annie-helms/new_spanish/F1_dur2,411,20,OK,pondis,407,pen,F1_dur2,1.0,3.0,2.0,-2.0,0.0,-1.0,l3_eng,-4.6982062141367,3.4095528632139467
263f10f5f44fad,rre101,2,2,20,https://d3uxfe7dw0hhy7.cloudfront.net/annie-helms/new_spanish/st4_dur5,429,20,OK,pondis,323,pen,st4_dur5,3.0,4.0,5.0,0.0,1.0,2.0,l3_eng,-4.6982062141367,3.4095528632139467
263f10f5f44fad,rre101,2,2,21,https://d3uxfe7dw0hhy7.cloudfront.net/annie-helms/new_spanish/F1_st1,411,20,OK,pondis,257,pen,F1_st1,1.0,1.0,3.0,-2.0,-2.0,0.0,l3_eng,-4.6982062141367,3.4095528632139467
263f10f5f44fad,rre101,2,2,22,https://d3uxfe7dw0hhy7.cloudfront.net/annie-helms/new_spanish/F2_st3,415,10,OK,pondís,619,ult,F2_st3,2.0,3.0,3.0,-1.0,0.0,0.0,l3_eng,-4.6982062141367,3.4095528632139467
263f10f5f44fad,rre101,2,2,23,https://d3uxfe7dw0hhy7.cloudfront.net/annie-helms/new_spanish/F2_st5,415,20,OK,pondis,679,pen,F2_st5,2.0,5.0,3.0,-1.0,2.0,0.0,l3_eng,-4.6982062141367,3.4095528632139467
263f10f5f44fad,rre101,2,2,24,https://d3uxfe7dw0hhy7.cloudfront.net/annie-helms/new_spanish/st2_dur5,429,20,OK,pondís,567,ult,st2_dur5,3.0,2.0,5.0,0.0,-1.0,2.0,l3_eng,-4.6982062141367,3.4095528632139467
263f10f5f44fad,rre101,2,2,25,https://d3uxfe7dw0hhy7.cloudfront.net/annie-helms/new_spanish/st1_dur1,420,20,OK,pondís,550,ult,st1_dur1,3.0,1.0,1.0,0.0,-2.0,-2.0,l3_eng,-4.6982062141367,3.4095528632139467
263f10f5f44fad,rre101,2,2,26,https://d3uxfe7dw0hhy7.cloudfront.net/annie-helms/new_spanish/F3_st2,417,20,OK,pondís,334,ult,F3_st2,3.0,2.0,3.0,0.0,-1.0,0.0,l3_eng,-4.6982062141367,3.4095528632139467
263f10f5f44fad,rre101,2,2,27,https://d3uxfe7dw0hhy7.cloudfront.net/annie-helms/new_spanish/F4_dur3,419,20,OK,pondís,253,ult,F4_dur3,4.0,3.0,3.0,1.0,0.0,0.0,l3_eng,-4.6982062141367,3.4095528632139467
263f10f5f44fad,rre101,2,2,28,https://d3uxfe7dw0hhy7.cloudfront.net/annie-helms/new_spanish/F5_st5,416,20,OK,pondis,302,pen,F5_st5,5.0,5.0,3.0,2.0,2.0,0.0,l3_eng,-4.6982062141367,3.4095528632139467
263f10f5f44fad,rre101,2,2,29,https://d3uxfe7dw0hhy7.cloudfront.net/annie-helms/new_spanish/F2_st1,415,20,OK,pondis,970,pen,F2_st1,2.0,1.0,3.0,-1.0,-2.0,0.0,l3_eng,-4.6982062141367,3.4095528632139467
263f10f5f44fad,rre101,2,2,30,https://d3uxfe7dw0hhy7.cloudfront.net/annie-helms/new_spanish/F4_st2,414,20,OK,pondis,1278,pen,F4_st2,4.0,2.0,3.0,1.0,-1.0,0.0,l3_eng,-4.6982062141367,3.4095528632139467
263f10f5f44fad,rre101,2,2,31,https://d3uxfe7dw0hhy7.cloudfront.net/annie-helms/new_spanish/F3_dur3,421,20,OK,pondis,1044,pen,F3_dur3,3.0,3.0,3.0,0.0,0.0,0.0,l3_eng,-4.6982062141367,3.4095528632139467
263f10f5f44fad,rre101,2,2,32,https://d3uxfe7dw0hhy7.cloudfront.net/annie-helms/new_spanish/F5_st1,416,25,OK,pondis,1237,pen,F5_st1,5.0,1.0,3.0,2.0,-2.0,0.0,l3_eng,-4.6982062141367,3.4095528632139467
263f10f5f44fad,rre101,2,2,33,https://d3uxfe7dw0hhy7.cloudfront.net/annie-helms/new_spanish/F5_dur5,428,20,OK,pondis,946,pen,F5_dur5,5.0,3.0,5.0,2.0,0.0,2.0,l3_eng,-4.6982062141367,3.4095528632139467
263f10f5f44fad,rre101,2,2,34,https://d3uxfe7dw0hhy7.cloudfront.net/annie-helms/new_spanish/st4_dur1,420,20,OK,pondis,886,pen,st4_dur1,3.0,4.0,1.0,0.0,1.0,-2.0,l3_eng,-4.6982062141367,3.4095528632139467
263f10f5f44fad,rre101,2,2,35,https://d3uxfe7dw0hhy7.cloudfront.net/annie-helms/new_spanish/st2_dur4,425,20,OK,pondis,459,pen,st2_dur4,3.0,2.0,4.0,0.0,-1.0,1.0,l3_eng,-4.6982062141367,3.4095528632139467
263f10f5f44fad,rre101,2,1,36,https://d3uxfe7dw0hhy7.cloudfront.net/annie-helms/new_spanish/F4_st5,414,20,OK,pondis,703,pen,F4_st5,4.0,5.0,3.0,1.0,2.0,0.0,l3_eng,-4.6982062141367,3.4095528632139467
263f10f5f44fad,rre101,2,2,37,https://d3uxfe7dw0hhy7.cloudfront.net/annie-helms/new_spanish/F2_dur4,423,115,OK,pondis,1080,pen,F2_dur4,2.0,3.0,4.0,-1.0,0.0,1.0,l3_eng,-4.6982062141367,3.4095528632139467
263f10f5f44fad,rre101,2,2,38,https://d3uxfe7dw0hhy7.cloudfront.net/annie-helms/new_spanish/F2_dur2,415,20,OK,pondís,726,ult,F2_dur2,2.0,3.0,2.0,-1.0,0.0,-1.0,l3_eng,-4.6982062141367,3.4095528632139467
263f10f5f44fad,rre101,2,2,39,https://d3uxfe7dw0hhy7.cloudfront.net/annie-helms/new_spanish/st3_dur5,429,20,OK,pondis,384,pen,st3_dur5,3.0,3.0,5.0,0.0,0.0,2.0,l3_eng,-4.6982062141367,3.4095528632139467
263f10f5f44fad,rre101,2,2,40,https://d3uxfe7dw0hhy7.cloudfront.net/annie-helms/new_spanish/F4_st4,414,20,OK,pondis,281,pen,F4_st4,4.0,4.0,3.0,1.0,1.0,0.0,l3_eng,-4.6982062141367,3.4095528632139467
263f10f5f44fad,rre101,2,2,41,https://d3uxfe7dw0hhy7.cloudfront.net/annie-helms/new_spanish/F1_st3,411,20,OK,pondis,459,pen,F1_st3,1.0,3.0,3.0,-2.0,0.0,0.0,l3_eng,-4.6982062141367,3.4095528632139467
263f10f5f44fad,rre101,2,2,42,https://d3uxfe7dw0hhy7.cloudfront.net/annie-helms/new_spanish/st4_dur3,421,20,OK,pondís,578,ult,st4_dur3,3.0,4.0,3.0,0.0,1.0,0.0,l3_eng,-4.6982062141367,3.4095528632139467
263f10f5f44fad,rre101,2,2,43,https://d3uxfe7dw0hhy7.cloudfront.net/annie-helms/new_spanish/st2_dur3,421,20,OK,pondis,329,pen,st2_dur3,3.0,2.0,3.0,0.0,-1.0,0.0,l3_eng,-4.6982062141367,3.4095528632139467
263f10f5f44fad,rre101,2,2,44,https://d3uxfe7dw0hhy7.cloudfront.net/annie-helms/new_spanish/F5_dur3,420,10,OK,pondis,580,pen,F5_dur3,5.0,3.0,3.0,2.0,0.0,0.0,l3_eng,-4.6982062141367,3.4095528632139467
263f10f5f44fad,rre101,2,2,45,https://d3uxfe7dw0hhy7.cloudfront.net/annie-helms/new_spanish/F5_dur1,420,75,OK,pondís,626,ult,F5_dur1,5.0,3.0,1.0,2.0,0.0,-2.0,l3_eng,-4.6982062141367,3.4095528632139467
263f10f5f44fad,rre101,2,2,46,https://d3uxfe7dw0hhy7.cloudfront.net/annie-helms/new_spanish/F1_dur1,414,25,OK,pondís,967,ult,F1_dur1,1.0,3.0,1.0,-2.0,0.0,-2.0,l3_eng,-4.6982062141367,3.4095528632139467
263f10f5f44fad,rre101,2,2,47,https://d3uxfe7dw0hhy7.cloudfront.net/annie-helms/new_spanish/F4_st3,414,15,OK,pondis,812,pen,F4_st3,4.0,3.0,3.0,1.0,0.0,0.0,l3_eng,-4.6982062141367,3.4095528632139467
263f10f5f44fad,rre101,2,2,48,https://d3uxfe7dw0hhy7.cloudfront.net/annie-helms/new_spanish/F4_dur2,415,20,OK,pondis,958,pen,F4_dur2,4.0,3.0,2.0,1.0,0.0,-1.0,l3_eng,-4.6982062141367,3.4095528632139467
263f10f5f44fad,rre101,2,2,49,https://d3uxfe7dw0hhy7.cloudfront.net/annie-helms/new_spanish/F3_st1,417,20,OK,pondís,796,ult,F3_st1,3.0,1.0,3.0,0.0,-2.0,0.0,l3_eng,-4.6982062141367,3.4095528632139467
263f10f5f44fad,rre101,2,2,50,https://d3uxfe7dw0hhy7.cloudfront.net/annie-helms/new_spanish/st2_dur2,418,20,OK,pondís,588,ult,st2_dur2,3.0,2.0,2.0,0.0,-1.0,-1.0,l3_eng,-4.6982062141367,3.4095528632139467
263f10f5f44fad,rre101,2,2,51,https://d3uxfe7dw0hhy7.cloudfront.net/annie-helms/new_spanish/F3_st3,417,20,OK,pondis,672,pen,F3_st3,3.0,3.0,3.0,0.0,0.0,0.0,l3_eng,-4.6982062141367,3.4095528632139467
263f10f5f44fad,rre101,2,2,52,https://d3uxfe7dw0hhy7.cloudfront.net/annie-helms/new_spanish/st1_dur4,425,25,OK,pondis,757,pen,st1_dur4,3.0,1.0,4.0,0.0,-2.0,1.0,l3_eng,-4.6982062141367,3.4095528632139467
263f10f5f44fad,rre101,2,2,53,https://d3uxfe7dw0hhy7.cloudfront.net/annie-helms/new_spanish/F5_st3,416,25,OK,pondís,570,ult,F5_st3,5.0,3.0,3.0,2.0,0.0,0.0,l3_eng,-4.6982062141367,3.4095528632139467
263f10f5f44fad,rre101,2,2,54,https://d3uxfe7dw0hhy7.cloudfront.net/annie-helms/new_spanish/F5_dur2,417,20,OK,pondis,939,pen,F5_dur2,5.0,3.0,2.0,2.0,0.0,-1.0,l3_eng,-4.6982062141367,3.4095528632139467
263f10f5f44fad,rre101,2,2,55,https://d3uxfe7dw0hhy7.cloudfront.net/annie-helms/new_spanish/F3_st5,417,20,OK,pondís,1534,ult,F3_st5,3.0,5.0,3.0,0.0,2.0,0.0,l3_eng,-4.6982062141367,3.4095528632139467
263f10f5f44fad,rre101,2,2,56,https://d3uxfe7dw0hhy7.cloudfront.net/annie-helms/new_spanish/st1_dur3,421,20,OK,pondis,1076,pen,st1_dur3,3.0,1.0,3.0,0.0,-2.0,0.0,l3_eng,-4.6982062141367,3.4095528632139467
263f10f5f44fad,rre101,2,2,57,https://d3uxfe7dw0hhy7.cloudfront.net/annie-helms/new_spanish/F1_st2,411,20,OK,pondis,805,pen,F1_st2,1.0,2.0,3.0,-2.0,-1.0,0.0,l3_eng,-4.6982062141367,3.4095528632139467
263f10f5f44fad,rre101,2,2,58,https://d3uxfe7dw0hhy7.cloudfront.net/annie-helms/new_spanish/st5_dur3,421,20,OK,pondis,1015,pen,st5_dur3,3.0,5.0,3.0,0.0,2.0,0.0,l3_eng,-4.6982062141367,3.4095528632139467
263f10f5f44fad,rre101,2,2,59,https://d3uxfe7dw0hhy7.cloudfront.net/annie-helms/new_spanish/F2_dur1,418,20,OK,pondis,325,pen,F2_dur1,2.0,3.0,1.0,-1.0,0.0,-2.0,l3_eng,-4.6982062141367,3.4095528632139467
263f10f5f44fad,rre101,2,2,60,https://d3uxfe7dw0hhy7.cloudfront.net/annie-helms/new_spanish/F5_st4,416,20,OK,pondís,851,ult,F5_st4,5.0,4.0,3.0,2.0,1.0,0.0,l3_eng,-4.6982062141367,3.4095528632139467
263f10f5f44fad,rre101,2,2,61,https://d3uxfe7dw0hhy7.cloudfront.net/annie-helms/new_spanish/st4_dur2,418,15,OK,pondís,672,ult,st4_dur2,3.0,4.0,2.0,0.0,1.0,-1.0,l3_eng,-4.6982062141367,3.4095528632139467
263f10f5f44fad,rre101,2,2,62,https://d3uxfe7dw0hhy7.cloudfront.net/annie-helms/new_spanish/st5_dur5,429,20,OK,pondis,1000,pen,st5_dur5,3.0,5.0,5.0,0.0,2.0,2.0,l3_eng,-4.6982062141367,3.4095528632139467
263f10f5f44fad,rre101,2,2,63,https://d3uxfe7dw0hhy7.cloudfront.net/annie-helms/new_spanish/F1_dur4,419,25,OK,pondis,593,pen,F1_dur4,1.0,3.0,4.0,-2.0,0.0,1.0,l3_eng,-4.6982062141367,3.4095528632139467
263f10f5f44fad,rre101,2,2,64,https://d3uxfe7dw0hhy7.cloudfront.net/annie-helms/new_spanish/F5_st2,416,20,OK,pondís,805,ult,F5_st2,5.0,2.0,3.0,2.0,-1.0,0.0,l3_eng,-4.6982062141367,3.4095528632139467
263f10f5f44fad,rre101,2,2,65,https://d3uxfe7dw0hhy7.cloudfront.net/annie-helms/new_spanish/F3_dur1,420,20,OK,pondís,754,ult,F3_dur1,3.0,3.0,1.0,0.0,0.0,-2.0,l3_eng,-4.6982062141367,3.4095528632139467
263f10f5f44fad,rre101,2,2,66,https://d3uxfe7dw0hhy7.cloudfront.net/annie-helms/new_spanish/st4_dur4,425,20,OK,pondís,905,ult,st4_dur4,3.0,4.0,4.0,0.0,1.0,1.0,l3_eng,-4.6982062141367,3.4095528632139467
263f10f5f44fad,rre101,2,2,67,https://d3uxfe7dw0hhy7.cloudfront.net/annie-helms/new_spanish/F4_dur4,423,20,OK,pondis,949,pen,F4_dur4,4.0,3.0,4.0,1.0,0.0,1.0,l3_eng,-4.6982062141367,3.4095528632139467
263f10f5f44fad,rre101,2,2,68,https://d3uxfe7dw0hhy7.cloudfront.net/annie-helms/new_spanish/st5_dur1,420,20,OK,pondis,820,pen,st5_dur1,3.0,5.0,1.0,0.0,2.0,-2.0,l3_eng,-4.6982062141367,3.4095528632139467
263f10f5f44fad,rre101,2,2,69,https://d3uxfe7dw0hhy7.cloudfront.net/annie-helms/new_spanish/st2_dur1,420,20,OK,pondis,291,pen,st2_dur1,3.0,2.0,1.0,0.0,-1.0,-2.0,l3_eng,-4.6982062141367,3.4095528632139467
263f10f5f44fad,rre101,2,2,70,https://d3uxfe7dw0hhy7.cloudfront.net/annie-helms/new_spanish/st5_dur4,425,20,OK,pondis,401,pen,st5_dur4,3.0,5.0,4.0,0.0,2.0,1.0,l3_eng,-4.6982062141367,3.4095528632139467
263f10f5f44fad,rre101,2,2,71,https://d3uxfe7dw0hhy7.cloudfront.net/annie-helms/new_spanish/st3_dur1,420,20,OK,pondís,481,ult,st3_dur1,3.0,3.0,1.0,0.0,0.0,-2.0,l3_eng,-4.6982062141367,3.4095528632139467
263f10f5f44fad,rre101,2,2,72,https://d3uxfe7dw0hhy7.cloudfront.net/annie-helms/new_spanish/F3_dur5,429,20,OK,pondís,727,ult,F3_dur5,3.0,3.0,5.0,0.0,0.0,2.0,l3_eng,-4.6982062141367,3.4095528632139467
263f10f5f44fad,rre101,2,2,73,https://d3uxfe7dw0hhy7.cloudfront.net/annie-helms/new_spanish/F4_dur1,418,20,OK,pondís,538,ult,F4_dur1,4.0,3.0,1.0,1.0,0.0,-2.0,l3_eng,-4.6982062141367,3.4095528632139467
263f10f5f44fad,rre101,2,2,74,https://d3uxfe7dw0hhy7.cloudfront.net/annie-helms/new_spanish/F2_dur3,419,20,OK,pondis,532,pen,F2_dur3,2.0,3.0,3.0,-1.0,0.0,0.0,l3_eng,-4.6982062141367,3.4095528632139467
263f127174fa91,irs023,2,1,0,https://d3uxfe7dw0hhy7.cloudfront.net/annie-helms/new_spanish/F1_st4,411,15,OK,pondis,2041,pen,F1_st4,1.0,4.0,3.0,-2.0,1.0,0.0,l1_eng,4.920638395836401,-1.0342179678999557
263f127174fa91,irs023,2,1,1,https://d3uxfe7dw0hhy7.cloudfront.net/annie-helms/new_spanish/F3_dur2,418,10,OK,pondís,1000,ult,F3_dur2,3.0,3.0,2.0,0.0,0.0,-1.0,l1_eng,4.920638395836401,-1.0342179678999557
263f127174fa91,irs023,2,1,2,https://d3uxfe7dw0hhy7.cloudfront.net/annie-helms/new_spanish/F4_st1,414,10,OK,pondís,952,ult,F4_st1,4.0,1.0,3.0,1.0,-2.0,0.0,l1_eng,4.920638395836401,-1.0342179678999557
263f127174fa91,irs023,2,1,3,https://d3uxfe7dw0hhy7.cloudfront.net/annie-helms/new_spanish/F2_dur1,418,15,OK,pondis,856,pen,F2_dur1,2.0,3.0,1.0,-1.0,0.0,-2.0,l1_eng,4.920638395836401,-1.0342179678999557
263f127174fa91,irs023,2,1,4,https://d3uxfe7dw0hhy7.cloudfront.net/annie-helms/new_spanish/F1_dur3,415,10,OK,pondís,1419,ult,F1_dur3,1.0,3.0,3.0,-2.0,0.0,0.0,l1_eng,4.920638395836401,-1.0342179678999557
263f127174fa91,irs023,2,1,5,https://d3uxfe7dw0hhy7.cloudfront.net/annie-helms/new_spanish/F5_dur3,420,20,OK,pondís,1030,ult,F5_dur3,5.0,3.0,3.0,2.0,0.0,0.0,l1_eng,4.920638395836401,-1.0342179678999557
263f127174fa91,irs023,2,1,6,https://d3uxfe7dw0hhy7.cloudfront.net/annie-helms/new_spanish/st1_dur1,420,10,OK,pondís,998,ult,st1_dur1,3.0,1.0,1.0,0.0,-2.0,-2.0,l1_eng,4.920638395836401,-1.0342179678999557
263f127174fa91,irs023,2,1,7,https://d3uxfe7dw0hhy7.cloudfront.net/annie-helms/new_spanish/F5_dur2,417,15,OK,pondís,920,ult,F5_dur2,5.0,3.0,2.0,2.0,0.0,-1.0,l1_eng,4.920638395836401,-1.0342179678999557
263f127174fa91,irs023,2,1,8,https://d3uxfe7dw0hhy7.cloudfront.net/annie-helms/new_spanish/st5_dur3,421,15,OK,pondis,1361,pen,st5_dur3,3.0,5.0,3.0,0.0,2.0,0.0,l1_eng,4.920638395836401,-1.0342179678999557
263f127174fa91,irs023,2,1,9,https://d3uxfe7dw0hhy7.cloudfront.net/annie-helms/new_spanish/F1_st5,411,10,OK,pondis,1015,pen,F1_st5,1.0,5.0,3.0,-2.0,2.0,0.0,l1_eng,4.920638395836401,-1.0342179678999557
263f127174fa91,irs023,2,1,10,https://d3uxfe7dw0hhy7.cloudfront.net/annie-helms/new_spanish/F4_dur1,418,10,OK,pondís,943,ult,F4_dur1,4.0,3.0,1.0,1.0,0.0,-2.0,l1_eng,4.920638395836401,-1.0342179678999557
263f127174fa91,irs023,2,1,11,https://d3uxfe7dw0hhy7.cloudfront.net/annie-helms/new_spanish/F1_dur1,414,10,OK,pondis,960,pen,F1_dur1,1.0,3.0,1.0,-2.0,0.0,-2.0,l1_eng,4.920638395836401,-1.0342179678999557
263f127174fa91,irs023,2,1,12,https://d3uxfe7dw0hhy7.cloudfront.net/annie-helms/new_spanish/F1_dur2,411,15,OK,pondis,1029,pen,F1_dur2,1.0,3.0,2.0,-2.0,0.0,-1.0,l1_eng,4.920638395836401,-1.0342179678999557
263f127174fa91,irs023,2,1,13,https://d3uxfe7dw0hhy7.cloudfront.net/annie-helms/new_spanish/st2_dur1,420,10,OK,pondís,1642,ult,st2_dur1,3.0,2.0,1.0,0.0,-1.0,-2.0,l1_eng,4.920638395836401,-1.0342179678999557
263f127174fa91,irs023,2,1,14,https://d3uxfe7dw0hhy7.cloudfront.net/annie-helms/new_spanish/F1_dur5,423,20,OK,pondis,963,pen,F1_dur5,1.0,3.0,5.0,-2.0,0.0,2.0,l1_eng,4.920638395836401,-1.0342179678999557
263f127174fa91,irs023,2,1,15,https://d3uxfe7dw0hhy7.cloudfront.net/annie-helms/new_spanish/st2_dur3,421,30,OK,pondís,958,ult,st2_dur3,3.0,2.0,3.0,0.0,-1.0,0.0,l1_eng,4.920638395836401,-1.0342179678999557
263f127174fa91,irs023,2,1,16,https://d3uxfe7dw0hhy7.cloudfront.net/annie-helms/new_spanish/F3_dur4,425,10,OK,pondís,942,ult,F3_dur4,3.0,3.0,4.0,0.0,0.0,1.0,l1_eng,4.920638395836401,-1.0342179678999557
263f127174fa91,irs023,2,1,17,https://d3uxfe7dw0hhy7.cloudfront.net/annie-helms/new_spanish/F5_dur1,420,20,OK,pondís,941,ult,F5_dur1,5.0,3.0,1.0,2.0,0.0,-2.0,l1_eng,4.920638395836401,-1.0342179678999557
263f127174fa91,irs023,2,1,18,https://d3uxfe7dw0hhy7.cloudfront.net/annie-helms/new_spanish/st3_dur1,420,80,OK,pondis,1034,pen,st3_dur1,3.0,3.0,1.0,0.0,0.0,-2.0,l1_eng,4.920638395836401,-1.0342179678999557
263f127174fa91,irs023,2,1,19,https://d3uxfe7dw0hhy7.cloudfront.net/annie-helms/new_spanish/st5_dur1,420,15,OK,pondís,1536,ult,st5_dur1,3.0,5.0,1.0,0.0,2.0,-2.0,l1_eng,4.920638395836401,-1.0342179678999557
263f127174fa91,irs023,2,1,20,https://d3uxfe7dw0hhy7.cloudfront.net/annie-helms/new_spanish/F1_st2,411,10,OK,pondis,971,pen,F1_st2,1.0,2.0,3.0,-2.0,-1.0,0.0,l1_eng,4.920638395836401,-1.0342179678999557
263f127174fa91,irs023,2,1,21,https://d3uxfe7dw0hhy7.cloudfront.net/annie-helms/new_spanish/st2_dur4,425,10,OK,pondís,924,ult,st2_dur4,3.0,2.0,4.0,0.0,-1.0,1.0,l1_eng,4.920638395836401,-1.0342179678999557
263f127174fa91,irs023,2,1,22,https://d3uxfe7dw0hhy7.cloudfront.net/annie-helms/new_spanish/F4_st2,414,10,OK,pondís,986,ult,F4_st2,4.0,2.0,3.0,1.0,-1.0,0.0,l1_eng,4.920638395836401,-1.0342179678999557
263f127174fa91,irs023,2,1,23,https://d3uxfe7dw0hhy7.cloudfront.net/annie-helms/new_spanish/st5_dur5,429,10,OK,pondís,1095,ult,st5_dur5,3.0,5.0,5.0,0.0,2.0,2.0,l1_eng,4.920638395836401,-1.0342179678999557
263f127174fa91,irs023,2,1,24,https://d3uxfe7dw0hhy7.cloudfront.net/annie-helms/new_spanish/F2_st3,415,10,OK,pondis,1040,pen,F2_st3,2.0,3.0,3.0,-1.0,0.0,0.0,l1_eng,4.920638395836401,-1.0342179678999557
263f127174fa91,irs023,2,1,25,https://d3uxfe7dw0hhy7.cloudfront.net/annie-helms/new_spanish/F5_st1,416,10,OK,pondís,1013,ult,F5_st1,5.0,1.0,3.0,2.0,-2.0,0.0,l1_eng,4.920638395836401,-1.0342179678999557
263f127174fa91,irs023,2,1,26,https://d3uxfe7dw0hhy7.cloudfront.net/annie-helms/new_spanish/st4_dur4,425,25,OK,pondís,884,ult,st4_dur4,3.0,4.0,4.0,0.0,1.0,1.0,l1_eng,4.920638395836401,-1.0342179678999557
263f127174fa91,irs023,2,1,27,https://d3uxfe7dw0hhy7.cloudfront.net/annie-helms/new_spanish/F5_st2,416,15,OK,pondís,906,ult,F5_st2,5.0,2.0,3.0,2.0,-1.0,0.0,l1_eng,4.920638395836401,-1.0342179678999557
263f127174fa91,irs023,2,1,28,https://d3uxfe7dw0hhy7.cloudfront.net/annie-helms/new_spanish/st5_dur4,425,10,OK,pondís,1152,ult,st5_dur4,3.0,5.0,4.0,0.0,2.0,1.0,l1_eng,4.920638395836401,-1.0342179678999557
263f127174fa91,irs023,2,1,29,https://d3uxfe7dw0hhy7.cloudfront.net/annie-helms/new_spanish/F4_st4,414,10,OK,pondís,902,ult,F4_st4,4.0,4.0,3.0,1.0,1.0,0.0,l1_eng,4.920638395836401,-1.0342179678999557
263f127174fa91,irs023,2,1,30,https://d3uxfe7dw0hhy7.cloudfront.net/annie-helms/new_spanish/F3_st4,417,10,OK,pondís,918,ult,F3_st4,3.0,4.0,3.0,0.0,1.0,0.0,l1_eng,4.920638395836401,-1.0342179678999557
263f127174fa91,irs023,2,1,31,https://d3uxfe7dw0hhy7.cloudfront.net/annie-helms/new_spanish/F2_dur4,423,15,OK,pondis,1939,pen,F2_dur4,2.0,3.0,4.0,-1.0,0.0,1.0,l1_eng,4.920638395836401,-1.0342179678999557
263f127174fa91,irs023,2,1,32,https://d3uxfe7dw0hhy7.cloudfront.net/annie-helms/new_spanish/st4_dur2,418,20,OK,pondís,936,ult,st4_dur2,3.0,4.0,2.0,0.0,1.0,-1.0,l1_eng,4.920638395836401,-1.0342179678999557
263f127174fa91,irs023,2,1,33,https://d3uxfe7dw0hhy7.cloudfront.net/annie-helms/new_spanish/st1_dur3,421,10,OK,pondís,1495,ult,st1_dur3,3.0,1.0,3.0,0.0,-2.0,0.0,l1_eng,4.920638395836401,-1.0342179678999557
263f127174fa91,irs023,2,1,34,https://d3uxfe7dw0hhy7.cloudfront.net/annie-helms/new_spanish/st2_dur5,429,10,OK,pondís,986,ult,st2_dur5,3.0,2.0,5.0,0.0,-1.0,2.0,l1_eng,4.920638395836401,-1.0342179678999557
263f127174fa91,irs023,2,1,35,https://d3uxfe7dw0hhy7.cloudfront.net/annie-helms/new_spanish/F4_dur2,415,15,OK,pondís,993,ult,F4_dur2,4.0,3.0,2.0,1.0,0.0,-1.0,l1_eng,4.920638395836401,-1.0342179678999557
263f127174fa91,irs023,2,1,36,https://d3uxfe7dw0hhy7.cloudfront.net/annie-helms/new_spanish/st1_dur4,425,25,OK,pondís,986,ult,st1_dur4,3.0,1.0,4.0,0.0,-2.0,1.0,l1_eng,4.920638395836401,-1.0342179678999557
263f127174fa91,irs023,2,1,37,https://d3uxfe7dw0hhy7.cloudfront.net/annie-helms/new_spanish/st3_dur2,418,10,OK,pondís,862,ult,st3_dur2,3.0,3.0,2.0,0.0,0.0,-1.0,l1_eng,4.920638395836401,-1.0342179678999557
263f127174fa91,irs023,2,1,38,https://d3uxfe7dw0hhy7.cloudfront.net/annie-helms/new_spanish/F2_st4,415,25,OK,pondís,951,ult,F2_st4,2.0,4.0,3.0,-1.0,1.0,0.0,l1_eng,4.920638395836401,-1.0342179678999557
263f127174fa91,irs023,2,1,39,https://d3uxfe7dw0hhy7.cloudfront.net/annie-helms/new_spanish/F5_dur5,428,15,OK,pondís,889,ult,F5_dur5,5.0,3.0,5.0,2.0,0.0,2.0,l1_eng,4.920638395836401,-1.0342179678999557
263f127174fa91,irs023,2,1,40,https://d3uxfe7dw0hhy7.cloudfront.net/annie-helms/new_spanish/st3_dur3,421,10,OK,pondís,1402,ult,st3_dur3,3.0,3.0,3.0,0.0,0.0,0.0,l1_eng,4.920638395836401,-1.0342179678999557
263f127174fa91,irs023,2,1,41,https://d3uxfe7dw0hhy7.cloudfront.net/annie-helms/new_spanish/F2_st2,415,15,OK,pondís,964,ult,F2_st2,2.0,2.0,3.0,-1.0,-1.0,0.0,l1_eng,4.920638395836401,-1.0342179678999557
263f127174fa91,irs023,2,1,42,https://d3uxfe7dw0hhy7.cloudfront.net/annie-helms/new_spanish/F2_dur3,419,15,OK,pondís,1153,ult,F2_dur3,2.0,3.0,3.0,-1.0,0.0,0.0,l1_eng,4.920638395836401,-1.0342179678999557
263f127174fa91,irs023,2,1,43,https://d3uxfe7dw0hhy7.cloudfront.net/annie-helms/new_spanish/F2_st1,415,25,OK,pondís,1708,ult,F2_st1,2.0,1.0,3.0,-1.0,-2.0,0.0,l1_eng,4.920638395836401,-1.0342179678999557
263f127174fa91,irs023,2,1,44,https://d3uxfe7dw0hhy7.cloudfront.net/annie-helms/new_spanish/F3_st3,417,15,OK,pondís,1280,ult,F3_st3,3.0,3.0,3.0,0.0,0.0,0.0,l1_eng,4.920638395836401,-1.0342179678999557
263f127174fa91,irs023,2,1,45,https://d3uxfe7dw0hhy7.cloudfront.net/annie-helms/new_spanish/F5_st4,416,15,OK,pondís,1126,ult,F5_st4,5.0,4.0,3.0,2.0,1.0,0.0,l1_eng,4.920638395836401,-1.0342179678999557
263f127174fa91,irs023,2,1,46,https://d3uxfe7dw0hhy7.cloudfront.net/annie-helms/new_spanish/F5_st3,416,20,OK,pondís,910,ult,F5_st3,5.0,3.0,3.0,2.0,0.0,0.0,l1_eng,4.920638395836401,-1.0342179678999557
263f127174fa91,irs023,2,1,47,https://d3uxfe7dw0hhy7.cloudfront.net/annie-helms/new_spanish/F4_dur4,423,50,OK,pondís,1045,ult,F4_dur4,4.0,3.0,4.0,1.0,0.0,1.0,l1_eng,4.920638395836401,-1.0342179678999557
263f127174fa91,irs023,2,1,48,https://d3uxfe7dw0hhy7.cloudfront.net/annie-helms/new_spanish/F1_st3,411,10,OK,pondis,1083,pen,F1_st3,1.0,3.0,3.0,-2.0,0.0,0.0,l1_eng,4.920638395836401,-1.0342179678999557
263f127174fa91,irs023,2,1,49,https://d3uxfe7dw0hhy7.cloudfront.net/annie-helms/new_spanish/st1_dur2,418,15,OK,pondís,1045,ult,st1_dur2,3.0,1.0,2.0,0.0,-2.0,-1.0,l1_eng,4.920638395836401,-1.0342179678999557
263f127174fa91,irs023,2,1,50,https://d3uxfe7dw0hhy7.cloudfront.net/annie-helms/new_spanish/st4_dur5,429,15,OK,pondís,887,ult,st4_dur5,3.0,4.0,5.0,0.0,1.0,2.0,l1_eng,4.920638395836401,-1.0342179678999557
263f127174fa91,irs023,2,1,51,https://d3uxfe7dw0hhy7.cloudfront.net/annie-helms/new_spanish/F4_dur5,426,10,OK,pondís,1009,ult,F4_dur5,4.0,3.0,5.0,1.0,0.0,2.0,l1_eng,4.920638395836401,-1.0342179678999557
263f127174fa91,irs023,2,1,52,https://d3uxfe7dw0hhy7.cloudfront.net/annie-helms/new_spanish/F5_dur4,424,10,OK,pondís,993,ult,F5_dur4,5.0,3.0,4.0,2.0,0.0,1.0,l1_eng,4.920638395836401,-1.0342179678999557
263f127174fa91,irs023,2,1,53,https://d3uxfe7dw0hhy7.cloudfront.net/annie-helms/new_spanish/st2_dur2,418,10,OK,pondís,1334,ult,st2_dur2,3.0,2.0,2.0,0.0,-1.0,-1.0,l1_eng,4.920638395836401,-1.0342179678999557
263f127174fa91,irs023,2,1,54,https://d3uxfe7dw0hhy7.cloudfront.net/annie-helms/new_spanish/F1_dur4,419,10,OK,pondis,925,pen,F1_dur4,1.0,3.0,4.0,-2.0,0.0,1.0,l1_eng,4.920638395836401,-1.0342179678999557
263f127174fa91,irs023,2,1,55,https://d3uxfe7dw0hhy7.cloudfront.net/annie-helms/new_spanish/F3_dur1,420,15,OK,pondís,1054,ult,F3_dur1,3.0,3.0,1.0,0.0,0.0,-2.0,l1_eng,4.920638395836401,-1.0342179678999557
263f127174fa91,irs023,2,1,56,https://d3uxfe7dw0hhy7.cloudfront.net/annie-helms/new_spanish/F4_dur3,419,10,OK,pondís,1001,ult,F4_dur3,4.0,3.0,3.0,1.0,0.0,0.0,l1_eng,4.920638395836401,-1.0342179678999557
263f127174fa91,irs023,2,1,57,https://d3uxfe7dw0hhy7.cloudfront.net/annie-helms/new_spanish/F3_st2,417,10,OK,pondís,1071,ult,F3_st2,3.0,2.0,3.0,0.0,-1.0,0.0,l1_eng,4.920638395836401,-1.0342179678999557
263f127174fa91,irs023,2,1,58,https://d3uxfe7dw0hhy7.cloudfront.net/annie-helms/new_spanish/F1_st1,411,10,OK,pondis,1018,pen,F1_st1,1.0,1.0,3.0,-2.0,-2.0,0.0,l1_eng,4.920638395836401,-1.0342179678999557
263f127174fa91,irs023,2,1,59,https://d3uxfe7dw0hhy7.cloudfront.net/annie-helms/new_spanish/F3_st5,417,10,OK,pondís,1235,ult,F3_st5,3.0,5.0,3.0,0.0,2.0,0.0,l1_eng,4.920638395836401,-1.0342179678999557
263f127174fa91,irs023,2,1,60,https://d3uxfe7dw0hhy7.cloudfront.net/annie-helms/new_spanish/F4_st5,414,10,OK,pondís,1127,ult,F4_st5,4.0,5.0,3.0,1.0,2.0,0.0,l1_eng,4.920638395836401,-1.0342179678999557
263f127174fa91,irs023,2,1,61,https://d3uxfe7dw0hhy7.cloudfront.net/annie-helms/new_spanish/F2_st5,415,15,OK,pondis,1089,pen,F2_st5,2.0,5.0,3.0,-1.0,2.0,0.0,l1_eng,4.920638395836401,-1.0342179678999557
263f127174fa91,irs023,2,1,62,https://d3uxfe7dw0hhy7.cloudfront.net/annie-helms/new_spanish/F3_dur3,421,15,OK,pondís,1202,ult,F3_dur3,3.0,3.0,3.0,0.0,0.0,0.0,l1_eng,4.920638395836401,-1.0342179678999557
263f127174fa91,irs023,2,1,63,https://d3uxfe7dw0hhy7.cloudfront.net/annie-helms/new_spanish/F5_st5,416,10,OK,pondís,1157,ult,F5_st5,5.0,5.0,3.0,2.0,2.0,0.0,l1_eng,4.920638395836401,-1.0342179678999557
263f127174fa91,irs023,2,1,64,https://d3uxfe7dw0hhy7.cloudfront.net/annie-helms/new_spanish/st3_dur4,425,15,OK,pondís,1405,ult,st3_dur4,3.0,3.0,4.0,0.0,0.0,1.0,l1_eng,4.920638395836401,-1.0342179678999557
263f127174fa91,irs023,2,1,65,https://d3uxfe7dw0hhy7.cloudfront.net/annie-helms/new_spanish/F2_dur5,427,10,OK,pondis,1108,pen,F2_dur5,2.0,3.0,5.0,-1.0,0.0,2.0,l1_eng,4.920638395836401,-1.0342179678999557
263f127174fa91,irs023,2,1,66,https://d3uxfe7dw0hhy7.cloudfront.net/annie-helms/new_spanish/F3_st1,417,10,OK,pondís,951,ult,F3_st1,3.0,1.0,3.0,0.0,-2.0,0.0,l1_eng,4.920638395836401,-1.0342179678999557
263f127174fa91,irs023,2,1,67,https://d3uxfe7dw0hhy7.cloudfront.net/annie-helms/new_spanish/F2_dur2,415,10,OK,pondis,839,pen,F2_dur2,2.0,3.0,2.0,-1.0,0.0,-1.0,l1_eng,4.920638395836401,-1.0342179678999557
263f127174fa91,irs023,2,1,68,https://d3uxfe7dw0hhy7.cloudfront.net/annie-helms/new_spanish/st1_dur5,429,20,OK,pondís,991,ult,st1_dur5,3.0,1.0,5.0,0.0,-2.0,2.0,l1_eng,4.920638395836401,-1.0342179678999557
263f127174fa91,irs023,2,1,69,https://d3uxfe7dw0hhy7.cloudfront.net/annie-helms/new_spanish/F4_st3,414,15,OK,pondís,1153,ult,F4_st3,4.0,3.0,3.0,1.0,0.0,0.0,l1_eng,4.920638395836401,-1.0342179678999557
263f127174fa91,irs023,2,1,70,https://d3uxfe7dw0hhy7.cloudfront.net/annie-helms/new_spanish/st4_dur1,420,10,OK,pondis,1119,pen,st4_dur1,3.0,4.0,1.0,0.0,1.0,-2.0,l1_eng,4.920638395836401,-1.0342179678999557
263f127174fa91,irs023,2,1,71,https://d3uxfe7dw0hhy7.cloudfront.net/annie-helms/new_spanish/F3_dur5,429,15,OK,pondís,1039,ult,F3_dur5,3.0,3.0,5.0,0.0,0.0,2.0,l1_eng,4.920638395836401,-1.0342179678999557
263f127174fa91,irs023,2,1,72,https://d3uxfe7dw0hhy7.cloudfront.net/annie-helms/new_spanish/st3_dur5,429,20,OK,pondis,1134,pen,st3_dur5,3.0,3.0,5.0,0.0,0.0,2.0,l1_eng,4.920638395836401,-1.0342179678999557
263f127174fa91,irs023,2,1,73,https://d3uxfe7dw0hhy7.cloudfront.net/annie-helms/new_spanish/st4_dur3,421,75,OK,pondis,1092,pen,st4_dur3,3.0,4.0,3.0,0.0,1.0,0.0,l1_eng,4.920638395836401,-1.0342179678999557
263f127174fa91,irs023,2,1,74,https://d3uxfe7dw0hhy7.cloudfront.net/annie-helms/new_spanish/st5_dur2,418,10,OK,pondis,1144,pen,st5_dur2,3.0,5.0,2.0,0.0,2.0,-1.0,l1_eng,4.920638395836401,-1.0342179678999557
263f127174fa91,irs023,2,2,0,https://d3uxfe7dw0hhy7.cloudfront.net/annie-helms/new_spanish/F2_dur4,423,15,OK,pondis,2399,pen,F2_dur4,2.0,3.0,4.0,-1.0,0.0,1.0,l1_eng,4.920638395836401,-1.0342179678999557
263f127174fa91,irs023,2,2,1,https://d3uxfe7dw0hhy7.cloudfront.net/annie-helms/new_spanish/st5_dur4,425,15,OK,pondís,2075,ult,st5_dur4,3.0,5.0,4.0,0.0,2.0,1.0,l1_eng,4.920638395836401,-1.0342179678999557
263f127174fa91,irs023,2,2,2,https://d3uxfe7dw0hhy7.cloudfront.net/annie-helms/new_spanish/F3_st5,417,15,OK,pondis,1000,pen,F3_st5,3.0,5.0,3.0,0.0,2.0,0.0,l1_eng,4.920638395836401,-1.0342179678999557
263f127174fa91,irs023,2,2,3,https://d3uxfe7dw0hhy7.cloudfront.net/annie-helms/new_spanish/F2_dur3,419,10,OK,pondis,1241,pen,F2_dur3,2.0,3.0,3.0,-1.0,0.0,0.0,l1_eng,4.920638395836401,-1.0342179678999557
263f127174fa91,irs023,2,2,4,https://d3uxfe7dw0hhy7.cloudfront.net/annie-helms/new_spanish/F5_st2,416,10,OK,pondis,1362,pen,F5_st2,5.0,2.0,3.0,2.0,-1.0,0.0,l1_eng,4.920638395836401,-1.0342179678999557
263f127174fa91,irs023,2,2,5,https://d3uxfe7dw0hhy7.cloudfront.net/annie-helms/new_spanish/st4_dur4,425,10,OK,pondis,1240,pen,st4_dur4,3.0,4.0,4.0,0.0,1.0,1.0,l1_eng,4.920638395836401,-1.0342179678999557
263f127174fa91,irs023,2,2,6,https://d3uxfe7dw0hhy7.cloudfront.net/annie-helms/new_spanish/F4_st5,414,10,OK,pondis,1230,pen,F4_st5,4.0,5.0,3.0,1.0,2.0,0.0,l1_eng,4.920638395836401,-1.0342179678999557
263f127174fa91,irs023,2,2,7,https://d3uxfe7dw0hhy7.cloudfront.net/annie-helms/new_spanish/F5_st3,416,20,OK,pondís,1030,ult,F5_st3,5.0,3.0,3.0,2.0,0.0,0.0,l1_eng,4.920638395836401,-1.0342179678999557
263f127174fa91,irs023,2,2,8,https://d3uxfe7dw0hhy7.cloudfront.net/annie-helms/new_spanish/F5_st5,416,10,OK,pondis,1112,pen,F5_st5,5.0,5.0,3.0,2.0,2.0,0.0,l1_eng,4.920638395836401,-1.0342179678999557
263f127174fa91,irs023,2,2,9,https://d3uxfe7dw0hhy7.cloudfront.net/annie-helms/new_spanish/F3_dur2,418,10,OK,pondis,1124,pen,F3_dur2,3.0,3.0,2.0,0.0,0.0,-1.0,l1_eng,4.920638395836401,-1.0342179678999557
263f127174fa91,irs023,2,2,10,https://d3uxfe7dw0hhy7.cloudfront.net/annie-helms/new_spanish/st1_dur4,425,10,OK,pondís,1078,ult,st1_dur4,3.0,1.0,4.0,0.0,-2.0,1.0,l1_eng,4.920638395836401,-1.0342179678999557
263f127174fa91,irs023,2,2,11,https://d3uxfe7dw0hhy7.cloudfront.net/annie-helms/new_spanish/F1_st5,411,15,OK,pondis,1037,pen,F1_st5,1.0,5.0,3.0,-2.0,2.0,0.0,l1_eng,4.920638395836401,-1.0342179678999557
263f127174fa91,irs023,2,2,12,https://d3uxfe7dw0hhy7.cloudfront.net/annie-helms/new_spanish/F2_st4,415,10,OK,pondis,1687,pen,F2_st4,2.0,4.0,3.0,-1.0,1.0,0.0,l1_eng,4.920638395836401,-1.0342179678999557
263f127174fa91,irs023,2,2,13,https://d3uxfe7dw0hhy7.cloudfront.net/annie-helms/new_spanish/F4_st2,414,10,OK,pondís,1369,ult,F4_st2,4.0,2.0,3.0,1.0,-1.0,0.0,l1_eng,4.920638395836401,-1.0342179678999557
263f127174fa91,irs023,2,2,14,https://d3uxfe7dw0hhy7.cloudfront.net/annie-helms/new_spanish/F3_st2,417,15,OK,pondis,1131,pen,F3_st2,3.0,2.0,3.0,0.0,-1.0,0.0,l1_eng,4.920638395836401,-1.0342179678999557
263f127174fa91,irs023,2,2,15,https://d3uxfe7dw0hhy7.cloudfront.net/annie-helms/new_spanish/F1_st1,411,35,OK,pondis,909,pen,F1_st1,1.0,1.0,3.0,-2.0,-2.0,0.0,l1_eng,4.920638395836401,-1.0342179678999557
263f127174fa91,irs023,2,2,16,https://d3uxfe7dw0hhy7.cloudfront.net/annie-helms/new_spanish/F1_dur3,415,45,OK,pondis,880,pen,F1_dur3,1.0,3.0,3.0,-2.0,0.0,0.0,l1_eng,4.920638395836401,-1.0342179678999557
263f127174fa91,irs023,2,2,17,https://d3uxfe7dw0hhy7.cloudfront.net/annie-helms/new_spanish/F1_dur2,411,10,OK,pondis,1000,pen,F1_dur2,1.0,3.0,2.0,-2.0,0.0,-1.0,l1_eng,4.920638395836401,-1.0342179678999557
263f127174fa91,irs023,2,2,18,https://d3uxfe7dw0hhy7.cloudfront.net/annie-helms/new_spanish/F4_dur2,415,15,OK,pondís,961,ult,F4_dur2,4.0,3.0,2.0,1.0,0.0,-1.0,l1_eng,4.920638395836401,-1.0342179678999557
263f127174fa91,irs023,2,2,19,https://d3uxfe7dw0hhy7.cloudfront.net/annie-helms/new_spanish/F4_st3,414,10,OK,pondís,855,ult,F4_st3,4.0,3.0,3.0,1.0,0.0,0.0,l1_eng,4.920638395836401,-1.0342179678999557
263f127174fa91,irs023,2,2,20,https://d3uxfe7dw0hhy7.cloudfront.net/annie-helms/new_spanish/F1_dur4,419,10,OK,pondis,979,pen,F1_dur4,1.0,3.0,4.0,-2.0,0.0,1.0,l1_eng,4.920638395836401,-1.0342179678999557
263f127174fa91,irs023,2,2,21,https://d3uxfe7dw0hhy7.cloudfront.net/annie-helms/new_spanish/st3_dur5,429,10,OK,pondís,1147,ult,st3_dur5,3.0,3.0,5.0,0.0,0.0,2.0,l1_eng,4.920638395836401,-1.0342179678999557
263f127174fa91,irs023,2,2,22,https://d3uxfe7dw0hhy7.cloudfront.net/annie-helms/new_spanish/F3_dur1,420,10,OK,pondis,1364,pen,F3_dur1,3.0,3.0,1.0,0.0,0.0,-2.0,l1_eng,4.920638395836401,-1.0342179678999557
263f127174fa91,irs023,2,2,23,https://d3uxfe7dw0hhy7.cloudfront.net/annie-helms/new_spanish/F1_dur1,414,10,OK,pondis,1315,pen,F1_dur1,1.0,3.0,1.0,-2.0,0.0,-2.0,l1_eng,4.920638395836401,-1.0342179678999557
263f127174fa91,irs023,2,2,24,https://d3uxfe7dw0hhy7.cloudfront.net/annie-helms/new_spanish/F2_dur5,427,10,OK,pondís,1146,ult,F2_dur5,2.0,3.0,5.0,-1.0,0.0,2.0,l1_eng,4.920638395836401,-1.0342179678999557
263f127174fa91,irs023,2,2,25,https://d3uxfe7dw0hhy7.cloudfront.net/annie-helms/new_spanish/st5_dur3,421,10,OK,pondís,1044,ult,st5_dur3,3.0,5.0,3.0,0.0,2.0,0.0,l1_eng,4.920638395836401,-1.0342179678999557
263f127174fa91,irs023,2,2,26,https://d3uxfe7dw0hhy7.cloudfront.net/annie-helms/new_spanish/F4_dur3,419,10,OK,pondís,1108,ult,F4_dur3,4.0,3.0,3.0,1.0,0.0,0.0,l1_eng,4.920638395836401,-1.0342179678999557
263f127174fa91,irs023,2,2,27,https://d3uxfe7dw0hhy7.cloudfront.net/annie-helms/new_spanish/st2_dur4,425,25,OK,pondis,1972,pen,st2_dur4,3.0,2.0,4.0,0.0,-1.0,1.0,l1_eng,4.920638395836401,-1.0342179678999557
263f127174fa91,irs023,2,2,28,https://d3uxfe7dw0hhy7.cloudfront.net/annie-helms/new_spanish/F3_dur5,429,15,OK,pondís,853,ult,F3_dur5,3.0,3.0,5.0,0.0,0.0,2.0,l1_eng,4.920638395836401,-1.0342179678999557
263f127174fa91,irs023,2,2,29,https://d3uxfe7dw0hhy7.cloudfront.net/annie-helms/new_spanish/F5_dur4,424,10,OK,pondís,964,ult,F5_dur4,5.0,3.0,4.0,2.0,0.0,1.0,l1_eng,4.920638395836401,-1.0342179678999557
263f127174fa91,irs023,2,2,30,https://d3uxfe7dw0hhy7.cloudfront.net/annie-helms/new_spanish/st5_dur2,418,10,OK,pondis,936,pen,st5_dur2,3.0,5.0,2.0,0.0,2.0,-1.0,l1_eng,4.920638395836401,-1.0342179678999557
263f127174fa91,irs023,2,2,31,https://d3uxfe7dw0hhy7.cloudfront.net/annie-helms/new_spanish/F3_st1,417,10,OK,pondis,1161,pen,F3_st1,3.0,1.0,3.0,0.0,-2.0,0.0,l1_eng,4.920638395836401,-1.0342179678999557
263f127174fa91,irs023,2,2,32,https://d3uxfe7dw0hhy7.cloudfront.net/annie-helms/new_spanish/F3_st3,417,10,OK,pondís,985,ult,F3_st3,3.0,3.0,3.0,0.0,0.0,0.0,l1_eng,4.920638395836401,-1.0342179678999557
263f127174fa91,irs023,2,2,33,https://d3uxfe7dw0hhy7.cloudfront.net/annie-helms/new_spanish/F5_dur3,420,10,OK,pondís,904,ult,F5_dur3,5.0,3.0,3.0,2.0,0.0,0.0,l1_eng,4.920638395836401,-1.0342179678999557
263f127174fa91,irs023,2,2,34,https://d3uxfe7dw0hhy7.cloudfront.net/annie-helms/new_spanish/st1_dur5,429,10,OK,pondis,1022,pen,st1_dur5,3.0,1.0,5.0,0.0,-2.0,2.0,l1_eng,4.920638395836401,-1.0342179678999557
263f127174fa91,irs023,2,2,35,https://d3uxfe7dw0hhy7.cloudfront.net/annie-helms/new_spanish/F3_dur4,425,15,OK,pondis,950,pen,F3_dur4,3.0,3.0,4.0,0.0,0.0,1.0,l1_eng,4.920638395836401,-1.0342179678999557
263f127174fa91,irs023,2,2,36,https://d3uxfe7dw0hhy7.cloudfront.net/annie-helms/new_spanish/F2_st5,415,15,OK,pondis,854,pen,F2_st5,2.0,5.0,3.0,-1.0,2.0,0.0,l1_eng,4.920638395836401,-1.0342179678999557
263f127174fa91,irs023,2,2,37,https://d3uxfe7dw0hhy7.cloudfront.net/annie-helms/new_spanish/st4_dur2,418,15,OK,pondis,971,pen,st4_dur2,3.0,4.0,2.0,0.0,1.0,-1.0,l1_eng,4.920638395836401,-1.0342179678999557
263f127174fa91,irs023,2,2,38,https://d3uxfe7dw0hhy7.cloudfront.net/annie-helms/new_spanish/st5_dur5,429,15,OK,pondis,1004,pen,st5_dur5,3.0,5.0,5.0,0.0,2.0,2.0,l1_eng,4.920638395836401,-1.0342179678999557
263f127174fa91,irs023,2,2,39,https://d3uxfe7dw0hhy7.cloudfront.net/annie-helms/new_spanish/F1_st4,411,15,OK,pondis,872,pen,F1_st4,1.0,4.0,3.0,-2.0,1.0,0.0,l1_eng,4.920638395836401,-1.0342179678999557
263f127174fa91,irs023,2,2,40,https://d3uxfe7dw0hhy7.cloudfront.net/annie-helms/new_spanish/st4_dur5,429,15,OK,pondís,815,ult,st4_dur5,3.0,4.0,5.0,0.0,1.0,2.0,l1_eng,4.920638395836401,-1.0342179678999557
263f127174fa91,irs023,2,2,41,https://d3uxfe7dw0hhy7.cloudfront.net/annie-helms/new_spanish/F5_dur5,428,15,OK,pondís,1007,ult,F5_dur5,5.0,3.0,5.0,2.0,0.0,2.0,l1_eng,4.920638395836401,-1.0342179678999557
263f127174fa91,irs023,2,2,42,https://d3uxfe7dw0hhy7.cloudfront.net/annie-helms/new_spanish/st3_dur2,418,10,OK,pondis,1896,pen,st3_dur2,3.0,3.0,2.0,0.0,0.0,-1.0,l1_eng,4.920638395836401,-1.0342179678999557
263f127174fa91,irs023,2,2,43,https://d3uxfe7dw0hhy7.cloudfront.net/annie-helms/new_spanish/F4_dur1,418,20,OK,pondís,1119,ult,F4_dur1,4.0,3.0,1.0,1.0,0.0,-2.0,l1_eng,4.920638395836401,-1.0342179678999557
263f127174fa91,irs023,2,2,44,https://d3uxfe7dw0hhy7.cloudfront.net/annie-helms/new_spanish/st1_dur2,418,10,OK,pondís,968,ult,st1_dur2,3.0,1.0,2.0,0.0,-2.0,-1.0,l1_eng,4.920638395836401,-1.0342179678999557
263f127174fa91,irs023,2,2,45,https://d3uxfe7dw0hhy7.cloudfront.net/annie-helms/new_spanish/st2_dur5,429,10,OK,pondís,830,ult,st2_dur5,3.0,2.0,5.0,0.0,-1.0,2.0,l1_eng,4.920638395836401,-1.0342179678999557
263f127174fa91,irs023,2,2,46,https://d3uxfe7dw0hhy7.cloudfront.net/annie-helms/new_spanish/st2_dur2,418,10,OK,pondis,860,pen,st2_dur2,3.0,2.0,2.0,0.0,-1.0,-1.0,l1_eng,4.920638395836401,-1.0342179678999557
263f127174fa91,irs023,2,2,47,https://d3uxfe7dw0hhy7.cloudfront.net/annie-helms/new_spanish/F2_st2,415,10,OK,pondis,1269,pen,F2_st2,2.0,2.0,3.0,-1.0,-1.0,0.0,l1_eng,4.920638395836401,-1.0342179678999557
263f127174fa91,irs023,2,2,48,https://d3uxfe7dw0hhy7.cloudfront.net/annie-helms/new_spanish/F3_dur3,421,10,OK,pondís,822,ult,F3_dur3,3.0,3.0,3.0,0.0,0.0,0.0,l1_eng,4.920638395836401,-1.0342179678999557
263f127174fa91,irs023,2,2,49,https://d3uxfe7dw0hhy7.cloudfront.net/annie-helms/new_spanish/F2_dur2,415,15,OK,pondis,1069,pen,F2_dur2,2.0,3.0,2.0,-1.0,0.0,-1.0,l1_eng,4.920638395836401,-1.0342179678999557
263f127174fa91,irs023,2,2,50,https://d3uxfe7dw0hhy7.cloudfront.net/annie-helms/new_spanish/F5_dur2,417,15,OK,pondís,792,ult,F5_dur2,5.0,3.0,2.0,2.0,0.0,-1.0,l1_eng,4.920638395836401,-1.0342179678999557
263f127174fa91,irs023,2,2,51,https://d3uxfe7dw0hhy7.cloudfront.net/annie-helms/new_spanish/st2_dur3,421,10,OK,pondis,1338,pen,st2_dur3,3.0,2.0,3.0,0.0,-1.0,0.0,l1_eng,4.920638395836401,-1.0342179678999557
263f127174fa91,irs023,2,2,52,https://d3uxfe7dw0hhy7.cloudfront.net/annie-helms/new_spanish/F1_st3,411,15,OK,pondis,1042,pen,F1_st3,1.0,3.0,3.0,-2.0,0.0,0.0,l1_eng,4.920638395836401,-1.0342179678999557
263f127174fa91,irs023,2,2,53,https://d3uxfe7dw0hhy7.cloudfront.net/annie-helms/new_spanish/F5_st1,416,10,OK,pondís,799,ult,F5_st1,5.0,1.0,3.0,2.0,-2.0,0.0,l1_eng,4.920638395836401,-1.0342179678999557
263f127174fa91,irs023,2,2,54,https://d3uxfe7dw0hhy7.cloudfront.net/annie-helms/new_spanish/st1_dur3,421,15,OK,pondís,1018,ult,st1_dur3,3.0,1.0,3.0,0.0,-2.0,0.0,l1_eng,4.920638395836401,-1.0342179678999557
263f127174fa91,irs023,2,2,55,https://d3uxfe7dw0hhy7.cloudfront.net/annie-helms/new_spanish/st3_dur4,425,10,OK,pondis,1812,pen,st3_dur4,3.0,3.0,4.0,0.0,0.0,1.0,l1_eng,4.920638395836401,-1.0342179678999557
263f127174fa91,irs023,2,2,56,https://d3uxfe7dw0hhy7.cloudfront.net/annie-helms/new_spanish/F2_st1,415,10,OK,pondis,1462,pen,F2_st1,2.0,1.0,3.0,-1.0,-2.0,0.0,l1_eng,4.920638395836401,-1.0342179678999557
263f127174fa91,irs023,2,2,57,https://d3uxfe7dw0hhy7.cloudfront.net/annie-helms/new_spanish/st1_dur1,420,10,OK,pondis,2235,pen,st1_dur1,3.0,1.0,1.0,0.0,-2.0,-2.0,l1_eng,4.920638395836401,-1.0342179678999557
263f127174fa91,irs023,2,2,58,https://d3uxfe7dw0hhy7.cloudfront.net/annie-helms/new_spanish/st3_dur3,421,10,OK,pondis,1426,pen,st3_dur3,3.0,3.0,3.0,0.0,0.0,0.0,l1_eng,4.920638395836401,-1.0342179678999557
263f127174fa91,irs023,2,2,59,https://d3uxfe7dw0hhy7.cloudfront.net/annie-helms/new_spanish/F1_st2,411,10,OK,pondis,909,pen,F1_st2,1.0,2.0,3.0,-2.0,-1.0,0.0,l1_eng,4.920638395836401,-1.0342179678999557
263f127174fa91,irs023,2,2,60,https://d3uxfe7dw0hhy7.cloudfront.net/annie-helms/new_spanish/F2_dur1,418,15,OK,pondis,919,pen,F2_dur1,2.0,3.0,1.0,-1.0,0.0,-2.0,l1_eng,4.920638395836401,-1.0342179678999557
263f127174fa91,irs023,2,2,61,https://d3uxfe7dw0hhy7.cloudfront.net/annie-helms/new_spanish/F3_st4,417,25,OK,pondís,1146,ult,F3_st4,3.0,4.0,3.0,0.0,1.0,0.0,l1_eng,4.920638395836401,-1.0342179678999557
263f127174fa91,irs023,2,2,62,https://d3uxfe7dw0hhy7.cloudfront.net/annie-helms/new_spanish/F4_st1,414,10,OK,pondís,825,ult,F4_st1,4.0,1.0,3.0,1.0,-2.0,0.0,l1_eng,4.920638395836401,-1.0342179678999557
263f127174fa91,irs023,2,2,63,https://d3uxfe7dw0hhy7.cloudfront.net/annie-helms/new_spanish/F4_dur4,423,10,OK,pondís,988,ult,F4_dur4,4.0,3.0,4.0,1.0,0.0,1.0,l1_eng,4.920638395836401,-1.0342179678999557
263f127174fa91,irs023,2,2,64,https://d3uxfe7dw0hhy7.cloudfront.net/annie-helms/new_spanish/F5_st4,416,10,OK,pondís,909,ult,F5_st4,5.0,4.0,3.0,2.0,1.0,0.0,l1_eng,4.920638395836401,-1.0342179678999557
263f127174fa91,irs023,2,2,65,https://d3uxfe7dw0hhy7.cloudfront.net/annie-helms/new_spanish/F4_dur5,426,10,OK,pondís,874,ult,F4_dur5,4.0,3.0,5.0,1.0,0.0,2.0,l1_eng,4.920638395836401,-1.0342179678999557
263f127174fa91,irs023,2,2,66,https://d3uxfe7dw0hhy7.cloudfront.net/annie-helms/new_spanish/st3_dur1,420,10,OK,pondís,790,ult,st3_dur1,3.0,3.0,1.0,0.0,0.0,-2.0,l1_eng,4.920638395836401,-1.0342179678999557
263f127174fa91,irs023,2,2,67,https://d3uxfe7dw0hhy7.cloudfront.net/annie-helms/new_spanish/st2_dur1,420,15,OK,pondis,1091,pen,st2_dur1,3.0,2.0,1.0,0.0,-1.0,-2.0,l1_eng,4.920638395836401,-1.0342179678999557
263f127174fa91,irs023,2,2,68,https://d3uxfe7dw0hhy7.cloudfront.net/annie-helms/new_spanish/st5_dur1,420,15,OK,pondis,680,pen,st5_dur1,3.0,5.0,1.0,0.0,2.0,-2.0,l1_eng,4.920638395836401,-1.0342179678999557
263f127174fa91,irs023,2,2,69,https://d3uxfe7dw0hhy7.cloudfront.net/annie-helms/new_spanish/F1_dur5,423,15,OK,pondis,682,pen,F1_dur5,1.0,3.0,5.0,-2.0,0.0,2.0,l1_eng,4.920638395836401,-1.0342179678999557
263f127174fa91,irs023,2,2,70,https://d3uxfe7dw0hhy7.cloudfront.net/annie-helms/new_spanish/F5_dur1,420,55,OK,pondis,674,pen,F5_dur1,5.0,3.0,1.0,2.0,0.0,-2.0,l1_eng,4.920638395836401,-1.0342179678999557
263f127174fa91,irs023,2,2,71,https://d3uxfe7dw0hhy7.cloudfront.net/annie-helms/new_spanish/F4_st4,414,10,OK,pondís,813,ult,F4_st4,4.0,4.0,3.0,1.0,1.0,0.0,l1_eng,4.920638395836401,-1.0342179678999557
263f127174fa91,irs023,2,2,72,https://d3uxfe7dw0hhy7.cloudfront.net/annie-helms/new_spanish/st4_dur1,420,10,OK,pondís,953,ult,st4_dur1,3.0,4.0,1.0,0.0,1.0,-2.0,l1_eng,4.920638395836401,-1.0342179678999557
263f127174fa91,irs023,2,2,73,https://d3uxfe7dw0hhy7.cloudfront.net/annie-helms/new_spanish/st4_dur3,421,20,OK,pondís,826,ult,st4_dur3,3.0,4.0,3.0,0.0,1.0,0.0,l1_eng,4.920638395836401,-1.0342179678999557
263f127174fa91,irs023,2,2,74,https://d3uxfe7dw0hhy7.cloudfront.net/annie-helms/new_spanish/F2_st3,415,10,OK,pondis,1560,pen,F2_st3,2.0,3.0,3.0,-1.0,0.0,0.0,l1_eng,4.920638395836401,-1.0342179678999557
263f522c88ab2b,dis022,2,1,0,https://d3uxfe7dw0hhy7.cloudfront.net/annie-helms/new_spanish/F4_st1,414,20,OK,pondís,1300,ult,F4_st1,4.0,1.0,3.0,1.0,-2.0,0.0,l1_eng,5.450197048775658,-0.13604800280042328
263f522c88ab2b,dis022,2,1,1,https://d3uxfe7dw0hhy7.cloudfront.net/annie-helms/new_spanish/F2_st5,415,20,OK,pondís,739,ult,F2_st5,2.0,5.0,3.0,-1.0,2.0,0.0,l1_eng,5.450197048775658,-0.13604800280042328
263f522c88ab2b,dis022,2,1,2,https://d3uxfe7dw0hhy7.cloudfront.net/annie-helms/new_spanish/F5_dur2,417,30,OK,pondís,793,ult,F5_dur2,5.0,3.0,2.0,2.0,0.0,-1.0,l1_eng,5.450197048775658,-0.13604800280042328
263f522c88ab2b,dis022,2,1,3,https://d3uxfe7dw0hhy7.cloudfront.net/annie-helms/new_spanish/F1_dur3,415,25,OK,pondis,754,pen,F1_dur3,1.0,3.0,3.0,-2.0,0.0,0.0,l1_eng,5.450197048775658,-0.13604800280042328
263f522c88ab2b,dis022,2,1,4,https://d3uxfe7dw0hhy7.cloudfront.net/annie-helms/new_spanish/st5_dur3,421,25,OK,pondis,829,pen,st5_dur3,3.0,5.0,3.0,0.0,2.0,0.0,l1_eng,5.450197048775658,-0.13604800280042328
263f522c88ab2b,dis022,2,1,5,https://d3uxfe7dw0hhy7.cloudfront.net/annie-helms/new_spanish/st5_dur1,420,20,OK,pondis,731,pen,st5_dur1,3.0,5.0,1.0,0.0,2.0,-2.0,l1_eng,5.450197048775658,-0.13604800280042328
263f522c88ab2b,dis022,2,1,6,https://d3uxfe7dw0hhy7.cloudfront.net/annie-helms/new_spanish/st2_dur2,418,20,OK,pondis,1187,pen,st2_dur2,3.0,2.0,2.0,0.0,-1.0,-1.0,l1_eng,5.450197048775658,-0.13604800280042328
263f522c88ab2b,dis022,2,1,7,https://d3uxfe7dw0hhy7.cloudfront.net/annie-helms/new_spanish/F4_st3,414,25,OK,pondis,895,pen,F4_st3,4.0,3.0,3.0,1.0,0.0,0.0,l1_eng,5.450197048775658,-0.13604800280042328
263f522c88ab2b,dis022,2,1,8,https://d3uxfe7dw0hhy7.cloudfront.net/annie-helms/new_spanish/F2_st1,415,25,OK,pondis,1045,pen,F2_st1,2.0,1.0,3.0,-1.0,-2.0,0.0,l1_eng,5.450197048775658,-0.13604800280042328
263f522c88ab2b,dis022,2,1,9,https://d3uxfe7dw0hhy7.cloudfront.net/annie-helms/new_spanish/F3_dur3,421,25,OK,pondis,896,pen,F3_dur3,3.0,3.0,3.0,0.0,0.0,0.0,l1_eng,5.450197048775658,-0.13604800280042328
263f522c88ab2b,dis022,2,1,10,https://d3uxfe7dw0hhy7.cloudfront.net/annie-helms/new_spanish/F2_st4,415,30,OK,pondis,880,pen,F2_st4,2.0,4.0,3.0,-1.0,1.0,0.0,l1_eng,5.450197048775658,-0.13604800280042328
263f522c88ab2b,dis022,2,1,11,https://d3uxfe7dw0hhy7.cloudfront.net/annie-helms/new_spanish/st2_dur4,425,25,OK,pondis,873,pen,st2_dur4,3.0,2.0,4.0,0.0,-1.0,1.0,l1_eng,5.450197048775658,-0.13604800280042328
263f522c88ab2b,dis022,2,1,12,https://d3uxfe7dw0hhy7.cloudfront.net/annie-helms/new_spanish/F1_st2,411,20,OK,pondis,1073,pen,F1_st2,1.0,2.0,3.0,-2.0,-1.0,0.0,l1_eng,5.450197048775658,-0.13604800280042328
263f522c88ab2b,dis022,2,1,13,https://d3uxfe7dw0hhy7.cloudfront.net/annie-helms/new_spanish/F2_dur2,415,35,OK,pondis,1021,pen,F2_dur2,2.0,3.0,2.0,-1.0,0.0,-1.0,l1_eng,5.450197048775658,-0.13604800280042328
263f522c88ab2b,dis022,2,1,14,https://d3uxfe7dw0hhy7.cloudfront.net/annie-helms/new_spanish/F5_st5,416,20,OK,pondís,894,ult,F5_st5,5.0,5.0,3.0,2.0,2.0,0.0,l1_eng,5.450197048775658,-0.13604800280042328
263f522c88ab2b,dis022,2,1,15,https://d3uxfe7dw0hhy7.cloudfront.net/annie-helms/new_spanish/F2_st2,415,20,OK,pondís,994,ult,F2_st2,2.0,2.0,3.0,-1.0,-1.0,0.0,l1_eng,5.450197048775658,-0.13604800280042328
263f522c88ab2b,dis022,2,1,16,https://d3uxfe7dw0hhy7.cloudfront.net/annie-helms/new_spanish/F5_st3,416,20,OK,pondís,813,ult,F5_st3,5.0,3.0,3.0,2.0,0.0,0.0,l1_eng,5.450197048775658,-0.13604800280042328
263f522c88ab2b,dis022,2,1,17,https://d3uxfe7dw0hhy7.cloudfront.net/annie-helms/new_spanish/F3_st1,417,25,OK,pondís,801,ult,F3_st1,3.0,1.0,3.0,0.0,-2.0,0.0,l1_eng,5.450197048775658,-0.13604800280042328
263f522c88ab2b,dis022,2,1,18,https://d3uxfe7dw0hhy7.cloudfront.net/annie-helms/new_spanish/F1_st5,411,20,OK,pondis,904,pen,F1_st5,1.0,5.0,3.0,-2.0,2.0,0.0,l1_eng,5.450197048775658,-0.13604800280042328
263f522c88ab2b,dis022,2,1,19,https://d3uxfe7dw0hhy7.cloudfront.net/annie-helms/new_spanish/F2_dur3,419,20,OK,pondis,1251,pen,F2_dur3,2.0,3.0,3.0,-1.0,0.0,0.0,l1_eng,5.450197048775658,-0.13604800280042328
263f522c88ab2b,dis022,2,1,20,https://d3uxfe7dw0hhy7.cloudfront.net/annie-helms/new_spanish/st1_dur3,421,35,OK,pondis,1364,pen,st1_dur3,3.0,1.0,3.0,0.0,-2.0,0.0,l1_eng,5.450197048775658,-0.13604800280042328
263f522c88ab2b,dis022,2,1,21,https://d3uxfe7dw0hhy7.cloudfront.net/annie-helms/new_spanish/F1_dur2,411,20,OK,pondis,1118,pen,F1_dur2,1.0,3.0,2.0,-2.0,0.0,-1.0,l1_eng,5.450197048775658,-0.13604800280042328
263f522c88ab2b,dis022,2,1,22,https://d3uxfe7dw0hhy7.cloudfront.net/annie-helms/new_spanish/F1_st3,411,20,OK,pondis,1643,pen,F1_st3,1.0,3.0,3.0,-2.0,0.0,0.0,l1_eng,5.450197048775658,-0.13604800280042328
263f522c88ab2b,dis022,2,1,23,https://d3uxfe7dw0hhy7.cloudfront.net/annie-helms/new_spanish/F1_dur1,414,25,OK,pondis,901,pen,F1_dur1,1.0,3.0,1.0,-2.0,0.0,-2.0,l1_eng,5.450197048775658,-0.13604800280042328
263f522c88ab2b,dis022,2,1,24,https://d3uxfe7dw0hhy7.cloudfront.net/annie-helms/new_spanish/F5_dur3,420,35,OK,pondís,779,ult,F5_dur3,5.0,3.0,3.0,2.0,0.0,0.0,l1_eng,5.450197048775658,-0.13604800280042328
263f522c88ab2b,dis022,2,1,25,https://d3uxfe7dw0hhy7.cloudfront.net/annie-helms/new_spanish/F5_st1,416,30,OK,pondís,2334,ult,F5_st1,5.0,1.0,3.0,2.0,-2.0,0.0,l1_eng,5.450197048775658,-0.13604800280042328
263f522c88ab2b,dis022,2,1,26,https://d3uxfe7dw0hhy7.cloudfront.net/annie-helms/new_spanish/F4_st5,414,20,OK,pondis,1084,pen,F4_st5,4.0,5.0,3.0,1.0,2.0,0.0,l1_eng,5.450197048775658,-0.13604800280042328
263f522c88ab2b,dis022,2,1,27,https://d3uxfe7dw0hhy7.cloudfront.net/annie-helms/new_spanish/F3_st4,417,25,OK,pondís,1058,ult,F3_st4,3.0,4.0,3.0,0.0,1.0,0.0,l1_eng,5.450197048775658,-0.13604800280042328
263f522c88ab2b,dis022,2,1,28,https://d3uxfe7dw0hhy7.cloudfront.net/annie-helms/new_spanish/st4_dur5,429,25,OK,pondis,916,pen,st4_dur5,3.0,4.0,5.0,0.0,1.0,2.0,l1_eng,5.450197048775658,-0.13604800280042328
263f522c88ab2b,dis022,2,1,29,https://d3uxfe7dw0hhy7.cloudfront.net/annie-helms/new_spanish/F5_dur5,428,20,OK,pondis,1451,pen,F5_dur5,5.0,3.0,5.0,2.0,0.0,2.0,l1_eng,5.450197048775658,-0.13604800280042328
263f522c88ab2b,dis022,2,1,30,https://d3uxfe7dw0hhy7.cloudfront.net/annie-helms/new_spanish/st1_dur5,429,20,OK,pondís,896,ult,st1_dur5,3.0,1.0,5.0,0.0,-2.0,2.0,l1_eng,5.450197048775658,-0.13604800280042328
263f522c88ab2b,dis022,2,1,31,https://d3uxfe7dw0hhy7.cloudfront.net/annie-helms/new_spanish/F1_dur5,423,25,OK,pondis,1442,pen,F1_dur5,1.0,3.0,5.0,-2.0,0.0,2.0,l1_eng,5.450197048775658,-0.13604800280042328
263f522c88ab2b,dis022,2,1,32,https://d3uxfe7dw0hhy7.cloudfront.net/annie-helms/new_spanish/st3_dur1,420,25,OK,pondís,1682,ult,st3_dur1,3.0,3.0,1.0,0.0,0.0,-2.0,l1_eng,5.450197048775658,-0.13604800280042328
263f522c88ab2b,dis022,2,1,33,https://d3uxfe7dw0hhy7.cloudfront.net/annie-helms/new_spanish/F3_dur2,418,20,OK,pondís,1652,ult,F3_dur2,3.0,3.0,2.0,0.0,0.0,-1.0,l1_eng,5.450197048775658,-0.13604800280042328
263f522c88ab2b,dis022,2,1,34,https://d3uxfe7dw0hhy7.cloudfront.net/annie-helms/new_spanish/st2_dur1,420,35,OK,pondis,794,pen,st2_dur1,3.0,2.0,1.0,0.0,-1.0,-2.0,l1_eng,5.450197048775658,-0.13604800280042328
263f522c88ab2b,dis022,2,1,35,https://d3uxfe7dw0hhy7.cloudfront.net/annie-helms/new_spanish/F5_st2,416,20,OK,pondis,878,pen,F5_st2,5.0,2.0,3.0,2.0,-1.0,0.0,l1_eng,5.450197048775658,-0.13604800280042328
263f522c88ab2b,dis022,2,1,36,https://d3uxfe7dw0hhy7.cloudfront.net/annie-helms/new_spanish/F4_dur5,426,30,OK,pondís,861,ult,F4_dur5,4.0,3.0,5.0,1.0,0.0,2.0,l1_eng,5.450197048775658,-0.13604800280042328
263f522c88ab2b,dis022,2,1,37,https://d3uxfe7dw0hhy7.cloudfront.net/annie-helms/new_spanish/st1_dur4,425,25,OK,pondís,1085,ult,st1_dur4,3.0,1.0,4.0,0.0,-2.0,1.0,l1_eng,5.450197048775658,-0.13604800280042328
263f522c88ab2b,dis022,2,1,38,https://d3uxfe7dw0hhy7.cloudfront.net/annie-helms/new_spanish/F3_st5,417,30,OK,pondís,760,ult,F3_st5,3.0,5.0,3.0,0.0,2.0,0.0,l1_eng,5.450197048775658,-0.13604800280042328
263f522c88ab2b,dis022,2,1,39,https://d3uxfe7dw0hhy7.cloudfront.net/annie-helms/new_spanish/st3_dur2,418,25,OK,pondís,841,ult,st3_dur2,3.0,3.0,2.0,0.0,0.0,-1.0,l1_eng,5.450197048775658,-0.13604800280042328
263f522c88ab2b,dis022,2,1,40,https://d3uxfe7dw0hhy7.cloudfront.net/annie-helms/new_spanish/F2_st3,415,35,OK,pondís,819,ult,F2_st3,2.0,3.0,3.0,-1.0,0.0,0.0,l1_eng,5.450197048775658,-0.13604800280042328
263f522c88ab2b,dis022,2,1,41,https://d3uxfe7dw0hhy7.cloudfront.net/annie-helms/new_spanish/st4_dur1,420,20,OK,pondís,900,ult,st4_dur1,3.0,4.0,1.0,0.0,1.0,-2.0,l1_eng,5.450197048775658,-0.13604800280042328
263f522c88ab2b,dis022,2,1,42,https://d3uxfe7dw0hhy7.cloudfront.net/annie-helms/new_spanish/F3_dur1,420,20,OK,pondís,791,ult,F3_dur1,3.0,3.0,1.0,0.0,0.0,-2.0,l1_eng,5.450197048775658,-0.13604800280042328
263f522c88ab2b,dis022,2,1,43,https://d3uxfe7dw0hhy7.cloudfront.net/annie-helms/new_spanish/F2_dur4,423,35,OK,pondis,1186,pen,F2_dur4,2.0,3.0,4.0,-1.0,0.0,1.0,l1_eng,5.450197048775658,-0.13604800280042328
263f522c88ab2b,dis022,2,1,44,https://d3uxfe7dw0hhy7.cloudfront.net/annie-helms/new_spanish/st1_dur1,420,25,OK,pondis,926,pen,st1_dur1,3.0,1.0,1.0,0.0,-2.0,-2.0,l1_eng,5.450197048775658,-0.13604800280042328
263f522c88ab2b,dis022,2,1,45,https://d3uxfe7dw0hhy7.cloudfront.net/annie-helms/new_spanish/st3_dur4,425,30,OK,pondís,787,ult,st3_dur4,3.0,3.0,4.0,0.0,0.0,1.0,l1_eng,5.450197048775658,-0.13604800280042328
263f522c88ab2b,dis022,2,1,46,https://d3uxfe7dw0hhy7.cloudfront.net/annie-helms/new_spanish/F5_st4,416,20,OK,pondís,1037,ult,F5_st4,5.0,4.0,3.0,2.0,1.0,0.0,l1_eng,5.450197048775658,-0.13604800280042328
263f522c88ab2b,dis022,2,1,47,https://d3uxfe7dw0hhy7.cloudfront.net/annie-helms/new_spanish/st4_dur3,421,30,OK,pondis,1227,pen,st4_dur3,3.0,4.0,3.0,0.0,1.0,0.0,l1_eng,5.450197048775658,-0.13604800280042328
263f522c88ab2b,dis022,2,1,48,https://d3uxfe7dw0hhy7.cloudfront.net/annie-helms/new_spanish/F1_st1,411,25,OK,pondis,1227,pen,F1_st1,1.0,1.0,3.0,-2.0,-2.0,0.0,l1_eng,5.450197048775658,-0.13604800280042328
263f522c88ab2b,dis022,2,1,49,https://d3uxfe7dw0hhy7.cloudfront.net/annie-helms/new_spanish/F4_dur4,423,30,OK,pondis,917,pen,F4_dur4,4.0,3.0,4.0,1.0,0.0,1.0,l1_eng,5.450197048775658,-0.13604800280042328
263f522c88ab2b,dis022,2,1,50,https://d3uxfe7dw0hhy7.cloudfront.net/annie-helms/new_spanish/F1_st4,411,25,OK,pondis,1015,pen,F1_st4,1.0,4.0,3.0,-2.0,1.0,0.0,l1_eng,5.450197048775658,-0.13604800280042328
263f522c88ab2b,dis022,2,1,51,https://d3uxfe7dw0hhy7.cloudfront.net/annie-helms/new_spanish/F3_st3,417,30,OK,pondís,899,ult,F3_st3,3.0,3.0,3.0,0.0,0.0,0.0,l1_eng,5.450197048775658,-0.13604800280042328
263f522c88ab2b,dis022,2,1,52,https://d3uxfe7dw0hhy7.cloudfront.net/annie-helms/new_spanish/st4_dur2,418,20,OK,pondís,855,ult,st4_dur2,3.0,4.0,2.0,0.0,1.0,-1.0,l1_eng,5.450197048775658,-0.13604800280042328
263f522c88ab2b,dis022,2,1,53,https://d3uxfe7dw0hhy7.cloudfront.net/annie-helms/new_spanish/F2_dur5,427,35,OK,pondis,943,pen,F2_dur5,2.0,3.0,5.0,-1.0,0.0,2.0,l1_eng,5.450197048775658,-0.13604800280042328
263f522c88ab2b,dis022,2,1,54,https://d3uxfe7dw0hhy7.cloudfront.net/annie-helms/new_spanish/F3_st2,417,20,OK,pondís,777,ult,F3_st2,3.0,2.0,3.0,0.0,-1.0,0.0,l1_eng,5.450197048775658,-0.13604800280042328
263f522c88ab2b,dis022,2,1,55,https://d3uxfe7dw0hhy7.cloudfront.net/annie-helms/new_spanish/st4_dur4,425,25,OK,pondís,675,ult,st4_dur4,3.0,4.0,4.0,0.0,1.0,1.0,l1_eng,5.450197048775658,-0.13604800280042328
263f522c88ab2b,dis022,2,1,56,https://d3uxfe7dw0hhy7.cloudfront.net/annie-helms/new_spanish/st5_dur4,425,20,OK,pondís,823,ult,st5_dur4,3.0,5.0,4.0,0.0,2.0,1.0,l1_eng,5.450197048775658,-0.13604800280042328
263f522c88ab2b,dis022,2,1,57,https://d3uxfe7dw0hhy7.cloudfront.net/annie-helms/new_spanish/st5_dur2,418,25,OK,pondís,862,ult,st5_dur2,3.0,5.0,2.0,0.0,2.0,-1.0,l1_eng,5.450197048775658,-0.13604800280042328
263f522c88ab2b,dis022,2,1,58,https://d3uxfe7dw0hhy7.cloudfront.net/annie-helms/new_spanish/F3_dur4,425,20,OK,pondís,754,ult,F3_dur4,3.0,3.0,4.0,0.0,0.0,1.0,l1_eng,5.450197048775658,-0.13604800280042328
263f522c88ab2b,dis022,2,1,59,https://d3uxfe7dw0hhy7.cloudfront.net/annie-helms/new_spanish/st5_dur5,429,30,OK,pondis,1208,pen,st5_dur5,3.0,5.0,5.0,0.0,2.0,2.0,l1_eng,5.450197048775658,-0.13604800280042328
263f522c88ab2b,dis022,2,1,60,https://d3uxfe7dw0hhy7.cloudfront.net/annie-helms/new_spanish/F4_dur2,415,20,OK,pondis,873,pen,F4_dur2,4.0,3.0,2.0,1.0,0.0,-1.0,l1_eng,5.450197048775658,-0.13604800280042328
263f522c88ab2b,dis022,2,1,61,https://d3uxfe7dw0hhy7.cloudfront.net/annie-helms/new_spanish/st2_dur3,421,25,OK,pondís,926,ult,st2_dur3,3.0,2.0,3.0,0.0,-1.0,0.0,l1_eng,5.450197048775658,-0.13604800280042328
263f522c88ab2b,dis022,2,1,62,https://d3uxfe7dw0hhy7.cloudfront.net/annie-helms/new_spanish/st1_dur2,418,30,OK,pondís,818,ult,st1_dur2,3.0,1.0,2.0,0.0,-2.0,-1.0,l1_eng,5.450197048775658,-0.13604800280042328
263f522c88ab2b,dis022,2,1,63,https://d3uxfe7dw0hhy7.cloudfront.net/annie-helms/new_spanish/F4_st2,414,25,OK,pondís,777,ult,F4_st2,4.0,2.0,3.0,1.0,-1.0,0.0,l1_eng,5.450197048775658,-0.13604800280042328
263f522c88ab2b,dis022,2,1,64,https://d3uxfe7dw0hhy7.cloudfront.net/annie-helms/new_spanish/F4_st4,414,25,OK,pondís,761,ult,F4_st4,4.0,4.0,3.0,1.0,1.0,0.0,l1_eng,5.450197048775658,-0.13604800280042328
263f522c88ab2b,dis022,2,1,65,https://d3uxfe7dw0hhy7.cloudfront.net/annie-helms/new_spanish/F1_dur4,419,30,OK,pondis,1242,pen,F1_dur4,1.0,3.0,4.0,-2.0,0.0,1.0,l1_eng,5.450197048775658,-0.13604800280042328
263f522c88ab2b,dis022,2,1,66,https://d3uxfe7dw0hhy7.cloudfront.net/annie-helms/new_spanish/st3_dur3,421,25,OK,pondis,932,pen,st3_dur3,3.0,3.0,3.0,0.0,0.0,0.0,l1_eng,5.450197048775658,-0.13604800280042328
263f522c88ab2b,dis022,2,1,67,https://d3uxfe7dw0hhy7.cloudfront.net/annie-helms/new_spanish/F4_dur1,418,35,OK,pondis,1158,pen,F4_dur1,4.0,3.0,1.0,1.0,0.0,-2.0,l1_eng,5.450197048775658,-0.13604800280042328
263f522c88ab2b,dis022,2,1,68,https://d3uxfe7dw0hhy7.cloudfront.net/annie-helms/new_spanish/F5_dur1,420,30,OK,pondís,904,ult,F5_dur1,5.0,3.0,1.0,2.0,0.0,-2.0,l1_eng,5.450197048775658,-0.13604800280042328
263f522c88ab2b,dis022,2,1,69,https://d3uxfe7dw0hhy7.cloudfront.net/annie-helms/new_spanish/st2_dur5,429,30,OK,pondís,630,ult,st2_dur5,3.0,2.0,5.0,0.0,-1.0,2.0,l1_eng,5.450197048775658,-0.13604800280042328
263f522c88ab2b,dis022,2,1,70,https://d3uxfe7dw0hhy7.cloudfront.net/annie-helms/new_spanish/F4_dur3,419,25,OK,pondís,928,ult,F4_dur3,4.0,3.0,3.0,1.0,0.0,0.0,l1_eng,5.450197048775658,-0.13604800280042328
263f522c88ab2b,dis022,2,1,71,https://d3uxfe7dw0hhy7.cloudfront.net/annie-helms/new_spanish/F5_dur4,424,25,OK,pondís,601,ult,F5_dur4,5.0,3.0,4.0,2.0,0.0,1.0,l1_eng,5.450197048775658,-0.13604800280042328
263f522c88ab2b,dis022,2,1,72,https://d3uxfe7dw0hhy7.cloudfront.net/annie-helms/new_spanish/st3_dur5,429,25,OK,pondís,575,ult,st3_dur5,3.0,3.0,5.0,0.0,0.0,2.0,l1_eng,5.450197048775658,-0.13604800280042328
263f522c88ab2b,dis022,2,1,73,https://d3uxfe7dw0hhy7.cloudfront.net/annie-helms/new_spanish/F2_dur1,418,25,OK,pondís,1114,ult,F2_dur1,2.0,3.0,1.0,-1.0,0.0,-2.0,l1_eng,5.450197048775658,-0.13604800280042328
263f522c88ab2b,dis022,2,1,74,https://d3uxfe7dw0hhy7.cloudfront.net/annie-helms/new_spanish/F3_dur5,429,35,OK,pondís,838,ult,F3_dur5,3.0,3.0,5.0,0.0,0.0,2.0,l1_eng,5.450197048775658,-0.13604800280042328
263f522c88ab2b,dis022,2,2,0,https://d3uxfe7dw0hhy7.cloudfront.net/annie-helms/new_spanish/F4_st2,414,25,OK,pondís,1126,ult,F4_st2,4.0,2.0,3.0,1.0,-1.0,0.0,l1_eng,5.450197048775658,-0.13604800280042328
263f522c88ab2b,dis022,2,2,1,https://d3uxfe7dw0hhy7.cloudfront.net/annie-helms/new_spanish/st5_dur4,425,25,OK,pondís,722,ult,st5_dur4,3.0,5.0,4.0,0.0,2.0,1.0,l1_eng,5.450197048775658,-0.13604800280042328
263f522c88ab2b,dis022,2,2,2,https://d3uxfe7dw0hhy7.cloudfront.net/annie-helms/new_spanish/F2_dur4,423,70,OK,pondís,591,ult,F2_dur4,2.0,3.0,4.0,-1.0,0.0,1.0,l1_eng,5.450197048775658,-0.13604800280042328
263f522c88ab2b,dis022,2,2,3,https://d3uxfe7dw0hhy7.cloudfront.net/annie-helms/new_spanish/st5_dur1,420,20,OK,pondis,658,pen,st5_dur1,3.0,5.0,1.0,0.0,2.0,-2.0,l1_eng,5.450197048775658,-0.13604800280042328
263f522c88ab2b,dis022,2,2,4,https://d3uxfe7dw0hhy7.cloudfront.net/annie-helms/new_spanish/st2_dur1,420,20,OK,pondis,1048,pen,st2_dur1,3.0,2.0,1.0,0.0,-1.0,-2.0,l1_eng,5.450197048775658,-0.13604800280042328
263f522c88ab2b,dis022,2,2,5,https://d3uxfe7dw0hhy7.cloudfront.net/annie-helms/new_spanish/st2_dur4,425,25,OK,pondis,1228,pen,st2_dur4,3.0,2.0,4.0,0.0,-1.0,1.0,l1_eng,5.450197048775658,-0.13604800280042328
263f522c88ab2b,dis022,2,2,6,https://d3uxfe7dw0hhy7.cloudfront.net/annie-helms/new_spanish/F5_st2,416,25,OK,pondis,953,pen,F5_st2,5.0,2.0,3.0,2.0,-1.0,0.0,l1_eng,5.450197048775658,-0.13604800280042328
263f522c88ab2b,dis022,2,2,7,https://d3uxfe7dw0hhy7.cloudfront.net/annie-helms/new_spanish/F1_st3,411,20,OK,pondis,933,pen,F1_st3,1.0,3.0,3.0,-2.0,0.0,0.0,l1_eng,5.450197048775658,-0.13604800280042328
263f522c88ab2b,dis022,2,2,8,https://d3uxfe7dw0hhy7.cloudfront.net/annie-helms/new_spanish/F4_dur2,415,20,OK,pondís,848,ult,F4_dur2,4.0,3.0,2.0,1.0,0.0,-1.0,l1_eng,5.450197048775658,-0.13604800280042328
263f522c88ab2b,dis022,2,2,9,https://d3uxfe7dw0hhy7.cloudfront.net/annie-helms/new_spanish/F1_st1,411,30,OK,pondis,1037,pen,F1_st1,1.0,1.0,3.0,-2.0,-2.0,0.0,l1_eng,5.450197048775658,-0.13604800280042328
263f522c88ab2b,dis022,2,2,10,https://d3uxfe7dw0hhy7.cloudfront.net/annie-helms/new_spanish/st4_dur5,429,25,OK,pondis,971,pen,st4_dur5,3.0,4.0,5.0,0.0,1.0,2.0,l1_eng,5.450197048775658,-0.13604800280042328
263f522c88ab2b,dis022,2,2,11,https://d3uxfe7dw0hhy7.cloudfront.net/annie-helms/new_spanish/st1_dur3,421,20,OK,pondis,740,pen,st1_dur3,3.0,1.0,3.0,0.0,-2.0,0.0,l1_eng,5.450197048775658,-0.13604800280042328
263f522c88ab2b,dis022,2,2,12,https://d3uxfe7dw0hhy7.cloudfront.net/annie-helms/new_spanish/F5_dur3,420,35,OK,pondís,794,ult,F5_dur3,5.0,3.0,3.0,2.0,0.0,0.0,l1_eng,5.450197048775658,-0.13604800280042328
263f522c88ab2b,dis022,2,2,13,https://d3uxfe7dw0hhy7.cloudfront.net/annie-helms/new_spanish/st3_dur4,425,20,OK,pondis,827,pen,st3_dur4,3.0,3.0,4.0,0.0,0.0,1.0,l1_eng,5.450197048775658,-0.13604800280042328
263f522c88ab2b,dis022,2,2,14,https://d3uxfe7dw0hhy7.cloudfront.net/annie-helms/new_spanish/st3_dur3,421,20,OK,pondis,893,pen,st3_dur3,3.0,3.0,3.0,0.0,0.0,0.0,l1_eng,5.450197048775658,-0.13604800280042328
263f522c88ab2b,dis022,2,2,15,https://d3uxfe7dw0hhy7.cloudfront.net/annie-helms/new_spanish/F2_dur3,419,25,OK,pondis,777,pen,F2_dur3,2.0,3.0,3.0,-1.0,0.0,0.0,l1_eng,5.450197048775658,-0.13604800280042328
263f522c88ab2b,dis022,2,2,16,https://d3uxfe7dw0hhy7.cloudfront.net/annie-helms/new_spanish/F3_dur5,429,20,OK,pondís,1151,ult,F3_dur5,3.0,3.0,5.0,0.0,0.0,2.0,l1_eng,5.450197048775658,-0.13604800280042328
263f522c88ab2b,dis022,2,2,17,https://d3uxfe7dw0hhy7.cloudfront.net/annie-helms/new_spanish/F3_st2,417,30,OK,pondis,1051,pen,F3_st2,3.0,2.0,3.0,0.0,-1.0,0.0,l1_eng,5.450197048775658,-0.13604800280042328
263f522c88ab2b,dis022,2,2,18,https://d3uxfe7dw0hhy7.cloudfront.net/annie-helms/new_spanish/F4_st1,414,20,OK,pondis,664,pen,F4_st1,4.0,1.0,3.0,1.0,-2.0,0.0,l1_eng,5.450197048775658,-0.13604800280042328
263f522c88ab2b,dis022,2,2,19,https://d3uxfe7dw0hhy7.cloudfront.net/annie-helms/new_spanish/F4_st5,414,20,OK,pondis,635,pen,F4_st5,4.0,5.0,3.0,1.0,2.0,0.0,l1_eng,5.450197048775658,-0.13604800280042328
263f522c88ab2b,dis022,2,2,20,https://d3uxfe7dw0hhy7.cloudfront.net/annie-helms/new_spanish/F1_st4,411,20,OK,pondis,686,pen,F1_st4,1.0,4.0,3.0,-2.0,1.0,0.0,l1_eng,5.450197048775658,-0.13604800280042328
263f522c88ab2b,dis022,2,2,21,https://d3uxfe7dw0hhy7.cloudfront.net/annie-helms/new_spanish/F2_dur1,418,25,OK,pondis,718,pen,F2_dur1,2.0,3.0,1.0,-1.0,0.0,-2.0,l1_eng,5.450197048775658,-0.13604800280042328
263f522c88ab2b,dis022,2,2,22,https://d3uxfe7dw0hhy7.cloudfront.net/annie-helms/new_spanish/st1_dur1,420,25,OK,pondis,1013,pen,st1_dur1,3.0,1.0,1.0,0.0,-2.0,-2.0,l1_eng,5.450197048775658,-0.13604800280042328
263f522c88ab2b,dis022,2,2,23,https://d3uxfe7dw0hhy7.cloudfront.net/annie-helms/new_spanish/st3_dur1,420,25,OK,pondis,934,pen,st3_dur1,3.0,3.0,1.0,0.0,0.0,-2.0,l1_eng,5.450197048775658,-0.13604800280042328
263f522c88ab2b,dis022,2,2,24,https://d3uxfe7dw0hhy7.cloudfront.net/annie-helms/new_spanish/F5_st3,416,30,OK,pondis,635,pen,F5_st3,5.0,3.0,3.0,2.0,0.0,0.0,l1_eng,5.450197048775658,-0.13604800280042328
263f522c88ab2b,dis022,2,2,25,https://d3uxfe7dw0hhy7.cloudfront.net/annie-helms/new_spanish/st5_dur2,418,30,OK,pondís,870,ult,st5_dur2,3.0,5.0,2.0,0.0,2.0,-1.0,l1_eng,5.450197048775658,-0.13604800280042328
263f522c88ab2b,dis022,2,2,26,https://d3uxfe7dw0hhy7.cloudfront.net/annie-helms/new_spanish/F2_st2,415,25,OK,pondis,845,pen,F2_st2,2.0,2.0,3.0,-1.0,-1.0,0.0,l1_eng,5.450197048775658,-0.13604800280042328
263f522c88ab2b,dis022,2,2,27,https://d3uxfe7dw0hhy7.cloudfront.net/annie-helms/new_spanish/F5_dur5,428,30,OK,pondis,931,pen,F5_dur5,5.0,3.0,5.0,2.0,0.0,2.0,l1_eng,5.450197048775658,-0.13604800280042328
263f522c88ab2b,dis022,2,2,28,https://d3uxfe7dw0hhy7.cloudfront.net/annie-helms/new_spanish/F5_dur2,417,20,OK,pondis,1427,pen,F5_dur2,5.0,3.0,2.0,2.0,0.0,-1.0,l1_eng,5.450197048775658,-0.13604800280042328
263f522c88ab2b,dis022,2,2,29,https://d3uxfe7dw0hhy7.cloudfront.net/annie-helms/new_spanish/F1_dur3,415,25,OK,pondis,771,pen,F1_dur3,1.0,3.0,3.0,-2.0,0.0,0.0,l1_eng,5.450197048775658,-0.13604800280042328
263f522c88ab2b,dis022,2,2,30,https://d3uxfe7dw0hhy7.cloudfront.net/annie-helms/new_spanish/F1_dur2,411,30,OK,pondís,892,ult,F1_dur2,1.0,3.0,2.0,-2.0,0.0,-1.0,l1_eng,5.450197048775658,-0.13604800280042328
263f522c88ab2b,dis022,2,2,31,https://d3uxfe7dw0hhy7.cloudfront.net/annie-helms/new_spanish/F4_dur1,418,20,OK,pondis,1118,pen,F4_dur1,4.0,3.0,1.0,1.0,0.0,-2.0,l1_eng,5.450197048775658,-0.13604800280042328
263f522c88ab2b,dis022,2,2,32,https://d3uxfe7dw0hhy7.cloudfront.net/annie-helms/new_spanish/st5_dur3,421,30,OK,pondís,825,ult,st5_dur3,3.0,5.0,3.0,0.0,2.0,0.0,l1_eng,5.450197048775658,-0.13604800280042328
263f522c88ab2b,dis022,2,2,33,https://d3uxfe7dw0hhy7.cloudfront.net/annie-helms/new_spanish/F4_dur3,419,25,OK,pondís,914,ult,F4_dur3,4.0,3.0,3.0,1.0,0.0,0.0,l1_eng,5.450197048775658,-0.13604800280042328
263f522c88ab2b,dis022,2,2,34,https://d3uxfe7dw0hhy7.cloudfront.net/annie-helms/new_spanish/F3_st1,417,30,OK,pondís,951,ult,F3_st1,3.0,1.0,3.0,0.0,-2.0,0.0,l1_eng,5.450197048775658,-0.13604800280042328
263f522c88ab2b,dis022,2,2,35,https://d3uxfe7dw0hhy7.cloudfront.net/annie-helms/new_spanish/st2_dur2,418,20,OK,pondís,740,ult,st2_dur2,3.0,2.0,2.0,0.0,-1.0,-1.0,l1_eng,5.450197048775658,-0.13604800280042328
263f522c88ab2b,dis022,2,2,36,https://d3uxfe7dw0hhy7.cloudfront.net/annie-helms/new_spanish/F3_st4,417,20,OK,pondís,793,ult,F3_st4,3.0,4.0,3.0,0.0,1.0,0.0,l1_eng,5.450197048775658,-0.13604800280042328
263f522c88ab2b,dis022,2,2,37,https://d3uxfe7dw0hhy7.cloudfront.net/annie-helms/new_spanish/F2_dur5,427,20,OK,pondís,713,ult,F2_dur5,2.0,3.0,5.0,-1.0,0.0,2.0,l1_eng,5.450197048775658,-0.13604800280042328
263f522c88ab2b,dis022,2,2,38,https://d3uxfe7dw0hhy7.cloudfront.net/annie-helms/new_spanish/F3_st5,417,20,OK,pondís,860,ult,F3_st5,3.0,5.0,3.0,0.0,2.0,0.0,l1_eng,5.450197048775658,-0.13604800280042328
263f522c88ab2b,dis022,2,2,39,https://d3uxfe7dw0hhy7.cloudfront.net/annie-helms/new_spanish/F5_dur4,424,30,OK,pondís,1192,ult,F5_dur4,5.0,3.0,4.0,2.0,0.0,1.0,l1_eng,5.450197048775658,-0.13604800280042328
263f522c88ab2b,dis022,2,2,40,https://d3uxfe7dw0hhy7.cloudfront.net/annie-helms/new_spanish/F4_dur5,426,25,OK,pondis,1421,pen,F4_dur5,4.0,3.0,5.0,1.0,0.0,2.0,l1_eng,5.450197048775658,-0.13604800280042328
263f522c88ab2b,dis022,2,2,41,https://d3uxfe7dw0hhy7.cloudfront.net/annie-helms/new_spanish/F5_dur1,420,70,OK,pondís,1107,ult,F5_dur1,5.0,3.0,1.0,2.0,0.0,-2.0,l1_eng,5.450197048775658,-0.13604800280042328
263f522c88ab2b,dis022,2,2,42,https://d3uxfe7dw0hhy7.cloudfront.net/annie-helms/new_spanish/F2_st4,415,25,OK,pondis,981,pen,F2_st4,2.0,4.0,3.0,-1.0,1.0,0.0,l1_eng,5.450197048775658,-0.13604800280042328
263f522c88ab2b,dis022,2,2,43,https://d3uxfe7dw0hhy7.cloudfront.net/annie-helms/new_spanish/F4_dur4,423,35,OK,pondis,990,pen,F4_dur4,4.0,3.0,4.0,1.0,0.0,1.0,l1_eng,5.450197048775658,-0.13604800280042328
263f522c88ab2b,dis022,2,2,44,https://d3uxfe7dw0hhy7.cloudfront.net/annie-helms/new_spanish/F5_st5,416,30,OK,pondís,1042,ult,F5_st5,5.0,5.0,3.0,2.0,2.0,0.0,l1_eng,5.450197048775658,-0.13604800280042328
263f522c88ab2b,dis022,2,2,45,https://d3uxfe7dw0hhy7.cloudfront.net/annie-helms/new_spanish/st1_dur4,425,30,OK,pondís,918,ult,st1_dur4,3.0,1.0,4.0,0.0,-2.0,1.0,l1_eng,5.450197048775658,-0.13604800280042328
263f522c88ab2b,dis022,2,2,46,https://d3uxfe7dw0hhy7.cloudfront.net/annie-helms/new_spanish/F2_st5,415,20,OK,pondis,992,pen,F2_st5,2.0,5.0,3.0,-1.0,2.0,0.0,l1_eng,5.450197048775658,-0.13604800280042328
263f522c88ab2b,dis022,2,2,47,https://d3uxfe7dw0hhy7.cloudfront.net/annie-helms/new_spanish/F3_dur4,425,25,OK,pondis,782,pen,F3_dur4,3.0,3.0,4.0,0.0,0.0,1.0,l1_eng,5.450197048775658,-0.13604800280042328
263f522c88ab2b,dis022,2,2,48,https://d3uxfe7dw0hhy7.cloudfront.net/annie-helms/new_spanish/F3_st3,417,25,OK,pondis,788,pen,F3_st3,3.0,3.0,3.0,0.0,0.0,0.0,l1_eng,5.450197048775658,-0.13604800280042328
263f522c88ab2b,dis022,2,2,49,https://d3uxfe7dw0hhy7.cloudfront.net/annie-helms/new_spanish/st3_dur2,418,30,OK,pondis,825,pen,st3_dur2,3.0,3.0,2.0,0.0,0.0,-1.0,l1_eng,5.450197048775658,-0.13604800280042328
263f522c88ab2b,dis022,2,2,50,https://d3uxfe7dw0hhy7.cloudfront.net/annie-helms/new_spanish/F1_st2,411,25,OK,pondis,1126,pen,F1_st2,1.0,2.0,3.0,-2.0,-1.0,0.0,l1_eng,5.450197048775658,-0.13604800280042328
263f522c88ab2b,dis022,2,2,51,https://d3uxfe7dw0hhy7.cloudfront.net/annie-helms/new_spanish/F1_dur1,414,25,OK,pondís,824,ult,F1_dur1,1.0,3.0,1.0,-2.0,0.0,-2.0,l1_eng,5.450197048775658,-0.13604800280042328
263f522c88ab2b,dis022,2,2,52,https://d3uxfe7dw0hhy7.cloudfront.net/annie-helms/new_spanish/F5_st4,416,25,OK,pondís,1091,ult,F5_st4,5.0,4.0,3.0,2.0,1.0,0.0,l1_eng,5.450197048775658,-0.13604800280042328
263f522c88ab2b,dis022,2,2,53,https://d3uxfe7dw0hhy7.cloudfront.net/annie-helms/new_spanish/st2_dur5,429,25,OK,pondís,1005,ult,st2_dur5,3.0,2.0,5.0,0.0,-1.0,2.0,l1_eng,5.450197048775658,-0.13604800280042328
263f522c88ab2b,dis022,2,2,54,https://d3uxfe7dw0hhy7.cloudfront.net/annie-helms/new_spanish/F1_dur4,419,25,OK,pondis,951,pen,F1_dur4,1.0,3.0,4.0,-2.0,0.0,1.0,l1_eng,5.450197048775658,-0.13604800280042328
263f522c88ab2b,dis022,2,2,55,https://d3uxfe7dw0hhy7.cloudfront.net/annie-helms/new_spanish/st1_dur5,429,35,OK,pondis,932,pen,st1_dur5,3.0,1.0,5.0,0.0,-2.0,2.0,l1_eng,5.450197048775658,-0.13604800280042328
263f522c88ab2b,dis022,2,2,56,https://d3uxfe7dw0hhy7.cloudfront.net/annie-helms/new_spanish/F3_dur2,418,30,OK,pondis,732,pen,F3_dur2,3.0,3.0,2.0,0.0,0.0,-1.0,l1_eng,5.450197048775658,-0.13604800280042328
263f522c88ab2b,dis022,2,2,57,https://d3uxfe7dw0hhy7.cloudfront.net/annie-helms/new_spanish/st4_dur2,418,25,OK,pondís,862,ult,st4_dur2,3.0,4.0,2.0,0.0,1.0,-1.0,l1_eng,5.450197048775658,-0.13604800280042328
263f522c88ab2b,dis022,2,2,58,https://d3uxfe7dw0hhy7.cloudfront.net/annie-helms/new_spanish/F2_dur2,415,20,OK,pondís,671,ult,F2_dur2,2.0,3.0,2.0,-1.0,0.0,-1.0,l1_eng,5.450197048775658,-0.13604800280042328
263f522c88ab2b,dis022,2,2,59,https://d3uxfe7dw0hhy7.cloudfront.net/annie-helms/new_spanish/st2_dur3,421,30,OK,pondís,721,ult,st2_dur3,3.0,2.0,3.0,0.0,-1.0,0.0,l1_eng,5.450197048775658,-0.13604800280042328
263f522c88ab2b,dis022,2,2,60,https://d3uxfe7dw0hhy7.cloudfront.net/annie-helms/new_spanish/F4_st4,414,30,OK,pondís,685,ult,F4_st4,4.0,4.0,3.0,1.0,1.0,0.0,l1_eng,5.450197048775658,-0.13604800280042328
263f522c88ab2b,dis022,2,2,61,https://d3uxfe7dw0hhy7.cloudfront.net/annie-helms/new_spanish/F1_dur5,423,25,OK,pondís,698,ult,F1_dur5,1.0,3.0,5.0,-2.0,0.0,2.0,l1_eng,5.450197048775658,-0.13604800280042328
263f522c88ab2b,dis022,2,2,62,https://d3uxfe7dw0hhy7.cloudfront.net/annie-helms/new_spanish/F5_st1,416,25,OK,pondís,837,ult,F5_st1,5.0,1.0,3.0,2.0,-2.0,0.0,l1_eng,5.450197048775658,-0.13604800280042328
263f522c88ab2b,dis022,2,2,63,https://d3uxfe7dw0hhy7.cloudfront.net/annie-helms/new_spanish/st4_dur1,420,25,OK,pondis,1026,pen,st4_dur1,3.0,4.0,1.0,0.0,1.0,-2.0,l1_eng,5.450197048775658,-0.13604800280042328
263f522c88ab2b,dis022,2,2,64,https://d3uxfe7dw0hhy7.cloudfront.net/annie-helms/new_spanish/F2_st3,415,30,OK,pondis,885,pen,F2_st3,2.0,3.0,3.0,-1.0,0.0,0.0,l1_eng,5.450197048775658,-0.13604800280042328
263f522c88ab2b,dis022,2,2,65,https://d3uxfe7dw0hhy7.cloudfront.net/annie-helms/new_spanish/st5_dur5,429,25,OK,pondis,657,pen,st5_dur5,3.0,5.0,5.0,0.0,2.0,2.0,l1_eng,5.450197048775658,-0.13604800280042328
263f522c88ab2b,dis022,2,2,66,https://d3uxfe7dw0hhy7.cloudfront.net/annie-helms/new_spanish/st4_dur4,425,25,OK,pondis,825,pen,st4_dur4,3.0,4.0,4.0,0.0,1.0,1.0,l1_eng,5.450197048775658,-0.13604800280042328
263f522c88ab2b,dis022,2,2,67,https://d3uxfe7dw0hhy7.cloudfront.net/annie-helms/new_spanish/F4_st3,414,20,OK,pondis,981,pen,F4_st3,4.0,3.0,3.0,1.0,0.0,0.0,l1_eng,5.450197048775658,-0.13604800280042328
263f522c88ab2b,dis022,2,2,68,https://d3uxfe7dw0hhy7.cloudfront.net/annie-helms/new_spanish/st3_dur5,429,35,OK,pondis,762,pen,st3_dur5,3.0,3.0,5.0,0.0,0.0,2.0,l1_eng,5.450197048775658,-0.13604800280042328
263f522c88ab2b,dis022,2,2,69,https://d3uxfe7dw0hhy7.cloudfront.net/annie-helms/new_spanish/F2_st1,415,25,OK,pondis,989,pen,F2_st1,2.0,1.0,3.0,-1.0,-2.0,0.0,l1_eng,5.450197048775658,-0.13604800280042328
263f522c88ab2b,dis022,2,2,70,https://d3uxfe7dw0hhy7.cloudfront.net/annie-helms/new_spanish/F1_st5,411,20,OK,pondis,943,pen,F1_st5,1.0,5.0,3.0,-2.0,2.0,0.0,l1_eng,5.450197048775658,-0.13604800280042328
263f522c88ab2b,dis022,2,2,71,https://d3uxfe7dw0hhy7.cloudfront.net/annie-helms/new_spanish/st4_dur3,421,25,OK,pondis,815,pen,st4_dur3,3.0,4.0,3.0,0.0,1.0,0.0,l1_eng,5.450197048775658,-0.13604800280042328
263f522c88ab2b,dis022,2,2,72,https://d3uxfe7dw0hhy7.cloudfront.net/annie-helms/new_spanish/F3_dur1,420,25,OK,pondís,739,ult,F3_dur1,3.0,3.0,1.0,0.0,0.0,-2.0,l1_eng,5.450197048775658,-0.13604800280042328
263f522c88ab2b,dis022,2,2,73,https://d3uxfe7dw0hhy7.cloudfront.net/annie-helms/new_spanish/F3_dur3,421,25,OK,pondís,1560,ult,F3_dur3,3.0,3.0,3.0,0.0,0.0,0.0,l1_eng,5.450197048775658,-0.13604800280042328
263f522c88ab2b,dis022,2,2,74,https://d3uxfe7dw0hhy7.cloudfront.net/annie-helms/new_spanish/st1_dur2,418,30,OK,pondís,563,ult,st1_dur2,3.0,1.0,2.0,0.0,-2.0,-1.0,l1_eng,5.450197048775658,-0.13604800280042328
263f9179d88cb0,irm067,2,1,0,https://d3uxfe7dw0hhy7.cloudfront.net/annie-helms/new_spanish/F3_dur1,420,25,OK,pondís,1262,ult,F3_dur1,3.0,3.0,1.0,0.0,0.0,-2.0,l1_eng,3.3613668843822038,-2.325885957243341
263f9179d88cb0,irm067,2,1,1,https://d3uxfe7dw0hhy7.cloudfront.net/annie-helms/new_spanish/F4_dur1,418,20,OK,pondís,926,ult,F4_dur1,4.0,3.0,1.0,1.0,0.0,-2.0,l1_eng,3.3613668843822038,-2.325885957243341
263f9179d88cb0,irm067,2,1,2,https://d3uxfe7dw0hhy7.cloudfront.net/annie-helms/new_spanish/F5_dur5,428,20,OK,pondís,902,ult,F5_dur5,5.0,3.0,5.0,2.0,0.0,2.0,l1_eng,3.3613668843822038,-2.325885957243341
263f9179d88cb0,irm067,2,1,3,https://d3uxfe7dw0hhy7.cloudfront.net/annie-helms/new_spanish/F5_st3,416,15,OK,pondís,1156,ult,F5_st3,5.0,3.0,3.0,2.0,0.0,0.0,l1_eng,3.3613668843822038,-2.325885957243341
263f9179d88cb0,irm067,2,1,4,https://d3uxfe7dw0hhy7.cloudfront.net/annie-helms/new_spanish/F1_st4,411,20,OK,pondis,873,pen,F1_st4,1.0,4.0,3.0,-2.0,1.0,0.0,l1_eng,3.3613668843822038,-2.325885957243341
263f9179d88cb0,irm067,2,1,5,https://d3uxfe7dw0hhy7.cloudfront.net/annie-helms/new_spanish/st2_dur3,421,20,OK,pondis,1163,pen,st2_dur3,3.0,2.0,3.0,0.0,-1.0,0.0,l1_eng,3.3613668843822038,-2.325885957243341
263f9179d88cb0,irm067,2,1,6,https://d3uxfe7dw0hhy7.cloudfront.net/annie-helms/new_spanish/F4_st1,414,15,OK,pondís,802,ult,F4_st1,4.0,1.0,3.0,1.0,-2.0,0.0,l1_eng,3.3613668843822038,-2.325885957243341
263f9179d88cb0,irm067,2,1,7,https://d3uxfe7dw0hhy7.cloudfront.net/annie-helms/new_spanish/st2_dur5,429,20,OK,pondís,808,ult,st2_dur5,3.0,2.0,5.0,0.0,-1.0,2.0,l1_eng,3.3613668843822038,-2.325885957243341
263f9179d88cb0,irm067,2,1,8,https://d3uxfe7dw0hhy7.cloudfront.net/annie-helms/new_spanish/F4_st2,414,15,OK,pondís,758,ult,F4_st2,4.0,2.0,3.0,1.0,-1.0,0.0,l1_eng,3.3613668843822038,-2.325885957243341
263f9179d88cb0,irm067,2,1,9,https://d3uxfe7dw0hhy7.cloudfront.net/annie-helms/new_spanish/F4_st4,414,15,OK,pondis,1252,pen,F4_st4,4.0,4.0,3.0,1.0,1.0,0.0,l1_eng,3.3613668843822038,-2.325885957243341
263f9179d88cb0,irm067,2,1,10,https://d3uxfe7dw0hhy7.cloudfront.net/annie-helms/new_spanish/F3_dur5,429,20,OK,pondís,1273,ult,F3_dur5,3.0,3.0,5.0,0.0,0.0,2.0,l1_eng,3.3613668843822038,-2.325885957243341
263f9179d88cb0,irm067,2,1,11,https://d3uxfe7dw0hhy7.cloudfront.net/annie-helms/new_spanish/F3_st4,417,15,OK,pondís,1073,ult,F3_st4,3.0,4.0,3.0,0.0,1.0,0.0,l1_eng,3.3613668843822038,-2.325885957243341
263f9179d88cb0,irm067,2,1,12,https://d3uxfe7dw0hhy7.cloudfront.net/annie-helms/new_spanish/st4_dur3,421,20,OK,pondis,1198,pen,st4_dur3,3.0,4.0,3.0,0.0,1.0,0.0,l1_eng,3.3613668843822038,-2.325885957243341
263f9179d88cb0,irm067,2,1,13,https://d3uxfe7dw0hhy7.cloudfront.net/annie-helms/new_spanish/F5_st1,416,15,OK,pondís,940,ult,F5_st1,5.0,1.0,3.0,2.0,-2.0,0.0,l1_eng,3.3613668843822038,-2.325885957243341
263f9179d88cb0,irm067,2,1,15,https://d3uxfe7dw0hhy7.cloudfront.net/annie-helms/new_spanish/F2_st5,415,20,OK,pondis,1121,pen,F2_st5,2.0,5.0,3.0,-1.0,2.0,0.0,l1_eng,3.3613668843822038,-2.325885957243341
263f9179d88cb0,irm067,2,1,16,https://d3uxfe7dw0hhy7.cloudfront.net/annie-helms/new_spanish/st4_dur1,420,15,OK,pondis,916,pen,st4_dur1,3.0,4.0,1.0,0.0,1.0,-2.0,l1_eng,3.3613668843822038,-2.325885957243341
263f9179d88cb0,irm067,2,1,17,https://d3uxfe7dw0hhy7.cloudfront.net/annie-helms/new_spanish/st3_dur5,429,15,OK,pondis,1494,pen,st3_dur5,3.0,3.0,5.0,0.0,0.0,2.0,l1_eng,3.3613668843822038,-2.325885957243341
263f9179d88cb0,irm067,2,1,18,https://d3uxfe7dw0hhy7.cloudfront.net/annie-helms/new_spanish/F2_st4,415,15,OK,pondis,1212,pen,F2_st4,2.0,4.0,3.0,-1.0,1.0,0.0,l1_eng,3.3613668843822038,-2.325885957243341
263f9179d88cb0,irm067,2,1,19,https://d3uxfe7dw0hhy7.cloudfront.net/annie-helms/new_spanish/F1_st3,411,15,OK,pondis,988,pen,F1_st3,1.0,3.0,3.0,-2.0,0.0,0.0,l1_eng,3.3613668843822038,-2.325885957243341
263f9179d88cb0,irm067,2,1,20,https://d3uxfe7dw0hhy7.cloudfront.net/annie-helms/new_spanish/F2_dur3,419,20,OK,pondis,906,pen,F2_dur3,2.0,3.0,3.0,-1.0,0.0,0.0,l1_eng,3.3613668843822038,-2.325885957243341
263f9179d88cb0,irm067,2,1,21,https://d3uxfe7dw0hhy7.cloudfront.net/annie-helms/new_spanish/F5_st2,416,20,OK,pondís,1888,ult,F5_st2,5.0,2.0,3.0,2.0,-1.0,0.0,l1_eng,3.3613668843822038,-2.325885957243341
263f9179d88cb0,irm067,2,1,22,https://d3uxfe7dw0hhy7.cloudfront.net/annie-helms/new_spanish/F4_dur4,423,15,OK,pondís,1055,ult,F4_dur4,4.0,3.0,4.0,1.0,0.0,1.0,l1_eng,3.3613668843822038,-2.325885957243341
263f9179d88cb0,irm067,2,1,23,https://d3uxfe7dw0hhy7.cloudfront.net/annie-helms/new_spanish/st3_dur1,420,20,OK,pondís,999,ult,st3_dur1,3.0,3.0,1.0,0.0,0.0,-2.0,l1_eng,3.3613668843822038,-2.325885957243341
263f9179d88cb0,irm067,2,1,24,https://d3uxfe7dw0hhy7.cloudfront.net/annie-helms/new_spanish/st1_dur5,429,15,OK,pondís,1991,ult,st1_dur5,3.0,1.0,5.0,0.0,-2.0,2.0,l1_eng,3.3613668843822038,-2.325885957243341
263f9179d88cb0,irm067,2,1,25,https://d3uxfe7dw0hhy7.cloudfront.net/annie-helms/new_spanish/st5_dur3,421,20,OK,pondis,1089,pen,st5_dur3,3.0,5.0,3.0,0.0,2.0,0.0,l1_eng,3.3613668843822038,-2.325885957243341
263f9179d88cb0,irm067,2,1,26,https://d3uxfe7dw0hhy7.cloudfront.net/annie-helms/new_spanish/F5_st4,416,20,OK,pondís,1301,ult,F5_st4,5.0,4.0,3.0,2.0,1.0,0.0,l1_eng,3.3613668843822038,-2.325885957243341
263f9179d88cb0,irm067,2,1,27,https://d3uxfe7dw0hhy7.cloudfront.net/annie-helms/new_spanish/F5_dur2,417,15,OK,pondís,1402,ult,F5_dur2,5.0,3.0,2.0,2.0,0.0,-1.0,l1_eng,3.3613668843822038,-2.325885957243341
263f9179d88cb0,irm067,2,1,28,https://d3uxfe7dw0hhy7.cloudfront.net/annie-helms/new_spanish/st4_dur2,418,15,OK,pondis,880,pen,st4_dur2,3.0,4.0,2.0,0.0,1.0,-1.0,l1_eng,3.3613668843822038,-2.325885957243341
263f9179d88cb0,irm067,2,1,29,https://d3uxfe7dw0hhy7.cloudfront.net/annie-helms/new_spanish/F4_st3,414,15,OK,pondís,1399,ult,F4_st3,4.0,3.0,3.0,1.0,0.0,0.0,l1_eng,3.3613668843822038,-2.325885957243341
263f9179d88cb0,irm067,2,1,30,https://d3uxfe7dw0hhy7.cloudfront.net/annie-helms/new_spanish/st4_dur5,429,15,OK,pondis,916,pen,st4_dur5,3.0,4.0,5.0,0.0,1.0,2.0,l1_eng,3.3613668843822038,-2.325885957243341
263f9179d88cb0,irm067,2,1,31,https://d3uxfe7dw0hhy7.cloudfront.net/annie-helms/new_spanish/F4_dur3,419,20,OK,pondis,1224,pen,F4_dur3,4.0,3.0,3.0,1.0,0.0,0.0,l1_eng,3.3613668843822038,-2.325885957243341
263f9179d88cb0,irm067,2,1,32,https://d3uxfe7dw0hhy7.cloudfront.net/annie-helms/new_spanish/F5_st5,416,20,OK,pondís,1012,ult,F5_st5,5.0,5.0,3.0,2.0,2.0,0.0,l1_eng,3.3613668843822038,-2.325885957243341
263f9179d88cb0,irm067,2,1,33,https://d3uxfe7dw0hhy7.cloudfront.net/annie-helms/new_spanish/F2_st3,415,15,OK,pondis,1641,pen,F2_st3,2.0,3.0,3.0,-1.0,0.0,0.0,l1_eng,3.3613668843822038,-2.325885957243341
263f9179d88cb0,irm067,2,1,34,https://d3uxfe7dw0hhy7.cloudfront.net/annie-helms/new_spanish/F1_dur4,419,20,OK,pondis,1512,pen,F1_dur4,1.0,3.0,4.0,-2.0,0.0,1.0,l1_eng,3.3613668843822038,-2.325885957243341
263f9179d88cb0,irm067,2,1,35,https://d3uxfe7dw0hhy7.cloudfront.net/annie-helms/new_spanish/F4_dur2,415,15,OK,pondís,1041,ult,F4_dur2,4.0,3.0,2.0,1.0,0.0,-1.0,l1_eng,3.3613668843822038,-2.325885957243341
263f9179d88cb0,irm067,2,1,36,https://d3uxfe7dw0hhy7.cloudfront.net/annie-helms/new_spanish/F2_st1,415,20,OK,pondis,1572,pen,F2_st1,2.0,1.0,3.0,-1.0,-2.0,0.0,l1_eng,3.3613668843822038,-2.325885957243341
263f9179d88cb0,irm067,2,1,37,https://d3uxfe7dw0hhy7.cloudfront.net/annie-helms/new_spanish/F3_dur4,425,20,OK,pondis,1010,pen,F3_dur4,3.0,3.0,4.0,0.0,0.0,1.0,l1_eng,3.3613668843822038,-2.325885957243341
263f9179d88cb0,irm067,2,1,38,https://d3uxfe7dw0hhy7.cloudfront.net/annie-helms/new_spanish/st3_dur3,421,15,OK,pondis,814,pen,st3_dur3,3.0,3.0,3.0,0.0,0.0,0.0,l1_eng,3.3613668843822038,-2.325885957243341
263f9179d88cb0,irm067,2,1,39,https://d3uxfe7dw0hhy7.cloudfront.net/annie-helms/new_spanish/F1_st2,411,15,OK,pondis,1045,pen,F1_st2,1.0,2.0,3.0,-2.0,-1.0,0.0,l1_eng,3.3613668843822038,-2.325885957243341
263f9179d88cb0,irm067,2,1,40,https://d3uxfe7dw0hhy7.cloudfront.net/annie-helms/new_spanish/st2_dur4,425,20,OK,pondis,1136,pen,st2_dur4,3.0,2.0,4.0,0.0,-1.0,1.0,l1_eng,3.3613668843822038,-2.325885957243341
263f9179d88cb0,irm067,2,1,41,https://d3uxfe7dw0hhy7.cloudfront.net/annie-helms/new_spanish/st1_dur3,421,20,OK,pondis,1024,pen,st1_dur3,3.0,1.0,3.0,0.0,-2.0,0.0,l1_eng,3.3613668843822038,-2.325885957243341
263f9179d88cb0,irm067,2,1,42,https://d3uxfe7dw0hhy7.cloudfront.net/annie-helms/new_spanish/st5_dur5,429,15,OK,pondis,1175,pen,st5_dur5,3.0,5.0,5.0,0.0,2.0,2.0,l1_eng,3.3613668843822038,-2.325885957243341
263f9179d88cb0,irm067,2,1,43,https://d3uxfe7dw0hhy7.cloudfront.net/annie-helms/new_spanish/st2_dur2,418,20,OK,pondis,1292,pen,st2_dur2,3.0,2.0,2.0,0.0,-1.0,-1.0,l1_eng,3.3613668843822038,-2.325885957243341
263f9179d88cb0,irm067,2,1,44,https://d3uxfe7dw0hhy7.cloudfront.net/annie-helms/new_spanish/F3_st1,417,15,OK,pondís,804,ult,F3_st1,3.0,1.0,3.0,0.0,-2.0,0.0,l1_eng,3.3613668843822038,-2.325885957243341
263f9179d88cb0,irm067,2,1,45,https://d3uxfe7dw0hhy7.cloudfront.net/annie-helms/new_spanish/st3_dur2,418,15,OK,pondis,1175,pen,st3_dur2,3.0,3.0,2.0,0.0,0.0,-1.0,l1_eng,3.3613668843822038,-2.325885957243341
263f9179d88cb0,irm067,2,1,46,https://d3uxfe7dw0hhy7.cloudfront.net/annie-helms/new_spanish/st4_dur4,425,20,OK,pondis,845,pen,st4_dur4,3.0,4.0,4.0,0.0,1.0,1.0,l1_eng,3.3613668843822038,-2.325885957243341
