subjID,partID,list,block,trial,file1,filedur,loadtime,status,response,rt
26372e732b7676,0,2,1,0,https://d3uxfe7dw0hhy7.cloudfront.net/annie-helms/span_perception_stimuli/F1_dur2,397,250,OK,pondís,777
26372e732b7676,0,2,1,1,https://d3uxfe7dw0hhy7.cloudfront.net/annie-helms/span_perception_stimuli/F1_dur1,393,20,OK,pondis,396
16372e7ae0faf5,0,1,1,0,https://d3uxfe7dw0hhy7.cloudfront.net/annie-helms/span_perception_stimuli/F6_st4,393,170,OK,pondís,654
16372e7ae0faf5,0,1,1,1,https://d3uxfe7dw0hhy7.cloudfront.net/annie-helms/span_perception_stimuli/F4_st5,399,15,OK,pondis,471
16372e7ae0faf5,0,1,1,2,https://d3uxfe7dw0hhy7.cloudfront.net/annie-helms/span_perception_stimuli/F2_dur4,406,15,OK,pondís,283
16372e7ae0faf5,0,1,1,3,https://d3uxfe7dw0hhy7.cloudfront.net/annie-helms/span_perception_stimuli/st6_dur5,418,20,OK,pondis,457
16372e9a5afa74,9c3b,1,1,0,https://d3uxfe7dw0hhy7.cloudfront.net/annie-helms/span_perception_stimuli/F6_st1,392,20,OK,pondís,1166
16372e9a5afa74,9c3b,1,1,1,https://d3uxfe7dw0hhy7.cloudfront.net/annie-helms/span_perception_stimuli/F6_dur6,409,25,OK,pondis,712
16372e9a5afa74,9c3b,1,1,2,https://d3uxfe7dw0hhy7.cloudfront.net/annie-helms/span_perception_stimuli/F4_dur2,398,15,OK,pondís,661
16372e9a5afa74,9c3b,1,1,3,https://d3uxfe7dw0hhy7.cloudfront.net/annie-helms/span_perception_stimuli/st5_dur1,400,20,OK,pondis,643
16372e9a5afa74,9c3b,1,1,4,https://d3uxfe7dw0hhy7.cloudfront.net/annie-helms/span_perception_stimuli/F6_dur5,405,20,OK,pondís,687
16372e9a5afa74,9c3b,1,1,5,https://d3uxfe7dw0hhy7.cloudfront.net/annie-helms/span_perception_stimuli/st5_dur4,413,25,OK,pondis,576
16372e9a5afa74,9c3b,1,1,6,https://d3uxfe7dw0hhy7.cloudfront.net/annie-helms/span_perception_stimuli/F6_st2,392,25,OK,pondís,522
16372e9a5afa74,9c3b,1,1,7,https://d3uxfe7dw0hhy7.cloudfront.net/annie-helms/span_perception_stimuli/st3_dur2,404,20,OK,pondis,490
16372e9a5afa74,9c3b,1,1,8,https://d3uxfe7dw0hhy7.cloudfront.net/annie-helms/span_perception_stimuli/F1_st6,398,20,OK,pondís,491
16372e9a5afa74,9c3b,1,1,9,https://d3uxfe7dw0hhy7.cloudfront.net/annie-helms/span_perception_stimuli/F3_dur1,391,20,OK,pondis,553
16372e9a5afa74,9c3b,1,1,10,https://d3uxfe7dw0hhy7.cloudfront.net/annie-helms/span_perception_stimuli/st6_dur2,404,20,OK,pondís,509
16372e9a5afa74,9c3b,1,1,11,https://d3uxfe7dw0hhy7.cloudfront.net/annie-helms/span_perception_stimuli/st5_dur3,409,15,OK,pondis,503
16372e9a5afa74,9c3b,1,1,12,https://d3uxfe7dw0hhy7.cloudfront.net/annie-helms/span_perception_stimuli/F2_st4,398,20,OK,pondís,465
16372e9a5afa74,9c3b,1,1,13,https://d3uxfe7dw0hhy7.cloudfront.net/annie-helms/span_perception_stimuli/F4_dur4,406,20,OK,pondis,493
16372e9a5afa74,9c3b,1,1,14,https://d3uxfe7dw0hhy7.cloudfront.net/annie-helms/span_perception_stimuli/F1_dur5,410,20,OK,pondís,488
16372e9a5afa74,9c3b,1,1,15,https://d3uxfe7dw0hhy7.cloudfront.net/annie-helms/span_perception_stimuli/F5_dur3,401,20,OK,pondis,521
16372e9a5afa74,9c3b,1,1,16,https://d3uxfe7dw0hhy7.cloudfront.net/annie-helms/span_perception_stimuli/F2_dur1,393,20,OK,pondís,566
16372e9a5afa74,9c3b,1,1,17,https://d3uxfe7dw0hhy7.cloudfront.net/annie-helms/span_perception_stimuli/F5_st1,400,15,OK,pondis,556
16372e9a5afa74,9c3b,1,1,18,https://d3uxfe7dw0hhy7.cloudfront.net/annie-helms/span_perception_stimuli/F5_dur5,410,25,OK,pondís,504
16372e9a5afa74,9c3b,1,1,19,https://d3uxfe7dw0hhy7.cloudfront.net/annie-helms/span_perception_stimuli/F4_dur5,411,20,OK,pondis,537
16372e9a5afa74,9c3b,1,1,20,https://d3uxfe7dw0hhy7.cloudfront.net/annie-helms/span_perception_stimuli/F4_dur3,402,15,OK,pondís,485
16372e9a5afa74,9c3b,1,1,21,https://d3uxfe7dw0hhy7.cloudfront.net/annie-helms/span_perception_stimuli/st1_dur4,413,25,OK,pondis,512
16372e9a5afa74,9c3b,1,1,22,https://d3uxfe7dw0hhy7.cloudfront.net/annie-helms/span_perception_stimuli/F1_dur3,402,25,OK,pondís,493
16372e9a5afa74,9c3b,1,1,23,https://d3uxfe7dw0hhy7.cloudfront.net/annie-helms/span_perception_stimuli/F6_st4,393,20,OK,pondis,489
16372e9a5afa74,9c3b,1,1,24,https://d3uxfe7dw0hhy7.cloudfront.net/annie-helms/span_perception_stimuli/F3_st6,398,25,OK,pondís,497
16372e9a5afa74,9c3b,1,1,25,https://d3uxfe7dw0hhy7.cloudfront.net/annie-helms/span_perception_stimuli/st5_dur5,418,20,OK,pondis,530
16372e9a5afa74,9c3b,1,1,26,https://d3uxfe7dw0hhy7.cloudfront.net/annie-helms/span_perception_stimuli/F3_dur2,395,20,OK,pondís,491
16372e9a5afa74,9c3b,1,1,27,https://d3uxfe7dw0hhy7.cloudfront.net/annie-helms/span_perception_stimuli/F2_st5,398,20,OK,pondis,557
16372e9a5afa74,9c3b,1,1,28,https://d3uxfe7dw0hhy7.cloudfront.net/annie-helms/span_perception_stimuli/F2_st1,398,25,OK,pondís,545
16372e9a5afa74,9c3b,1,1,29,https://d3uxfe7dw0hhy7.cloudfront.net/annie-helms/span_perception_stimuli/F5_dur6,407,20,OK,pondis,524
16372e9a5afa74,9c3b,1,1,30,https://d3uxfe7dw0hhy7.cloudfront.net/annie-helms/span_perception_stimuli/st1_dur3,409,20,OK,pondís,528
16372e9a5afa74,9c3b,1,1,31,https://d3uxfe7dw0hhy7.cloudfront.net/annie-helms/span_perception_stimuli/F1_st1,393,15,OK,pondis,553
16372e9a5afa74,9c3b,1,1,32,https://d3uxfe7dw0hhy7.cloudfront.net/annie-helms/span_perception_stimuli/st4_dur1,400,25,OK,pondís,521
16372e9a5afa74,9c3b,1,1,33,https://d3uxfe7dw0hhy7.cloudfront.net/annie-helms/span_perception_stimuli/st2_dur4,413,20,OK,pondis,568
16372e9a5afa74,9c3b,1,1,34,https://d3uxfe7dw0hhy7.cloudfront.net/annie-helms/span_perception_stimuli/F5_st6,400,20,OK,pondís,504
16372e9a5afa74,9c3b,1,1,35,https://d3uxfe7dw0hhy7.cloudfront.net/annie-helms/span_perception_stimuli/F3_dur3,400,15,OK,pondis,541
16372e9a5afa74,9c3b,1,1,36,https://d3uxfe7dw0hhy7.cloudfront.net/annie-helms/span_perception_stimuli/F2_st3,398,25,OK,pondís,494
16372e9a5afa74,9c3b,1,1,37,https://d3uxfe7dw0hhy7.cloudfront.net/annie-helms/span_perception_stimuli/st4_dur5,418,20,OK,pondis,485
16372e9a5afa74,9c3b,1,1,38,https://d3uxfe7dw0hhy7.cloudfront.net/annie-helms/span_perception_stimuli/st6_dur4,413,20,OK,pondís,457
16372e9a5afa74,9c3b,1,1,39,https://d3uxfe7dw0hhy7.cloudfront.net/annie-helms/span_perception_stimuli/st2_dur6,414,20,OK,pondis,537
16372e9a5afa74,9c3b,1,1,40,https://d3uxfe7dw0hhy7.cloudfront.net/annie-helms/span_perception_stimuli/F3_st1,398,20,OK,pondís,582
16372e9a5afa74,9c3b,1,1,41,https://d3uxfe7dw0hhy7.cloudfront.net/annie-helms/span_perception_stimuli/F6_dur1,387,25,OK,pondis,578
16372e9a5afa74,9c3b,1,1,42,https://d3uxfe7dw0hhy7.cloudfront.net/annie-helms/span_perception_stimuli/F2_st2,398,25,OK,pondís,494
16372e9a5afa74,9c3b,1,1,43,https://d3uxfe7dw0hhy7.cloudfront.net/annie-helms/span_perception_stimuli/st5_dur2,404,15,OK,pondis,619
16372e9a5afa74,9c3b,1,1,44,https://d3uxfe7dw0hhy7.cloudfront.net/annie-helms/span_perception_stimuli/st1_dur2,404,20,OK,pondís,399
16372e9a5afa74,9c3b,1,1,45,https://d3uxfe7dw0hhy7.cloudfront.net/annie-helms/span_perception_stimuli/F3_dur5,408,20,OK,pondis,559
16372e9a5afa74,9c3b,1,1,46,https://d3uxfe7dw0hhy7.cloudfront.net/annie-helms/span_perception_stimuli/F6_st5,392,20,OK,pondís,587
16372e9a5afa74,9c3b,1,1,47,https://d3uxfe7dw0hhy7.cloudfront.net/annie-helms/span_perception_stimuli/st4_dur3,409,25,OK,pondis,539
16372e9a5afa74,9c3b,1,1,48,https://d3uxfe7dw0hhy7.cloudfront.net/annie-helms/span_perception_stimuli/F4_st3,399,25,OK,pondís,546
16372e9a5afa74,9c3b,1,1,49,https://d3uxfe7dw0hhy7.cloudfront.net/annie-helms/span_perception_stimuli/F4_st2,399,20,OK,pondis,567
16372e9a5afa74,9c3b,1,1,50,https://d3uxfe7dw0hhy7.cloudfront.net/annie-helms/span_perception_stimuli/F3_st2,398,25,OK,pondís,565
16372e9a5afa74,9c3b,1,1,51,https://d3uxfe7dw0hhy7.cloudfront.net/annie-helms/span_perception_stimuli/F5_st4,400,20,OK,pondis,637
16372e9a5afa74,9c3b,1,1,52,https://d3uxfe7dw0hhy7.cloudfront.net/annie-helms/span_perception_stimuli/F1_dur4,406,20,OK,pondís,542
16372e9a5afa74,9c3b,1,1,53,https://d3uxfe7dw0hhy7.cloudfront.net/annie-helms/span_perception_stimuli/F3_st4,398,20,OK,pondis,509
16372e9a5afa74,9c3b,1,1,54,https://d3uxfe7dw0hhy7.cloudfront.net/annie-helms/span_perception_stimuli/F2_dur5,411,20,OK,pondís,521
16372e9a5afa74,9c3b,1,1,55,https://d3uxfe7dw0hhy7.cloudfront.net/annie-helms/span_perception_stimuli/F5_dur1,392,20,OK,pondis,570
16372e9a5afa74,9c3b,1,1,56,https://d3uxfe7dw0hhy7.cloudfront.net/annie-helms/span_perception_stimuli/F1_st3,398,20,OK,pondís,580
16372e9a5afa74,9c3b,1,1,57,https://d3uxfe7dw0hhy7.cloudfront.net/annie-helms/span_perception_stimuli/F6_dur4,400,20,OK,pondis,681
16372e9a5afa74,9c3b,1,1,58,https://d3uxfe7dw0hhy7.cloudfront.net/annie-helms/span_perception_stimuli/st6_dur6,414,20,OK,pondís,481
16372e9a5afa74,9c3b,1,1,59,https://d3uxfe7dw0hhy7.cloudfront.net/annie-helms/span_perception_stimuli/F1_st2,398,15,OK,pondis,441
16372e9a5afa74,9c3b,1,1,60,https://d3uxfe7dw0hhy7.cloudfront.net/annie-helms/span_perception_stimuli/st1_dur5,418,20,OK,pondís,503
16372e9a5afa74,9c3b,1,1,61,https://d3uxfe7dw0hhy7.cloudfront.net/annie-helms/span_perception_stimuli/F5_st2,400,20,OK,pondis,562
16372e9a5afa74,9c3b,1,1,62,https://d3uxfe7dw0hhy7.cloudfront.net/annie-helms/span_perception_stimuli/F1_st5,398,20,OK,pondís,753
16372e9a5afa74,9c3b,1,1,63,https://d3uxfe7dw0hhy7.cloudfront.net/annie-helms/span_perception_stimuli/F3_dur6,405,20,OK,pondís,549
16372e9a5afa74,9c3b,1,1,64,https://d3uxfe7dw0hhy7.cloudfront.net/annie-helms/span_perception_stimuli/F1_dur2,397,90,OK,pondís,581
16372e9a5afa74,9c3b,1,1,65,https://d3uxfe7dw0hhy7.cloudfront.net/annie-helms/span_perception_stimuli/F3_st5,398,15,OK,pondís,877
16372e9a5afa74,9c3b,1,1,66,https://d3uxfe7dw0hhy7.cloudfront.net/annie-helms/span_perception_stimuli/st2_dur3,408,20,OK,pondís,605
16372e9a5afa74,9c3b,1,1,67,https://d3uxfe7dw0hhy7.cloudfront.net/annie-helms/span_perception_stimuli/st1_dur1,400,20,OK,pondís,611
16372e9a5afa74,9c3b,1,1,68,https://d3uxfe7dw0hhy7.cloudfront.net/annie-helms/span_perception_stimuli/F2_dur2,397,20,OK,pondís,1153
16372e9a5afa74,9c3b,1,1,69,https://d3uxfe7dw0hhy7.cloudfront.net/annie-helms/span_perception_stimuli/st6_dur1,400,20,OK,pondís,916
16372e9a5afa74,9c3b,1,1,70,https://d3uxfe7dw0hhy7.cloudfront.net/annie-helms/span_perception_stimuli/st4_dur6,414,20,OK,pondís,677
16372e9a5afa74,9c3b,1,1,71,https://d3uxfe7dw0hhy7.cloudfront.net/annie-helms/span_perception_stimuli/st5_dur6,414,20,OK,pondís,734
16372e9a5afa74,9c3b,1,1,72,https://d3uxfe7dw0hhy7.cloudfront.net/annie-helms/span_perception_stimuli/st1_dur6,415,15,OK,pondís,521
16372e9a5afa74,9c3b,1,1,73,https://d3uxfe7dw0hhy7.cloudfront.net/annie-helms/span_perception_stimuli/F4_st4,399,20,OK,pondís,559
16372e9a5afa74,9c3b,1,1,74,https://d3uxfe7dw0hhy7.cloudfront.net/annie-helms/span_perception_stimuli/st3_dur3,409,15,OK,pondís,570
16372e9a5afa74,9c3b,1,1,75,https://d3uxfe7dw0hhy7.cloudfront.net/annie-helms/span_perception_stimuli/F5_dur4,405,15,OK,pondís,686
16372e9a5afa74,9c3b,1,1,76,https://d3uxfe7dw0hhy7.cloudfront.net/annie-helms/span_perception_stimuli/F4_st1,399,25,OK,pondís,783
16372e9a5afa74,9c3b,1,1,77,https://d3uxfe7dw0hhy7.cloudfront.net/annie-helms/span_perception_stimuli/st2_dur1,400,20,OK,pondís,762
16372e9a5afa74,9c3b,1,1,78,https://d3uxfe7dw0hhy7.cloudfront.net/annie-helms/span_perception_stimuli/F1_dur1,393,20,OK,pondís,749
16372e9a5afa74,9c3b,1,1,79,https://d3uxfe7dw0hhy7.cloudfront.net/annie-helms/span_perception_stimuli/F4_dur6,408,20,OK,pondís,682
16372e9a5afa74,9c3b,1,1,80,https://d3uxfe7dw0hhy7.cloudfront.net/annie-helms/span_perception_stimuli/F2_st6,398,20,OK,pondís,636
16372e9a5afa74,9c3b,1,1,81,https://d3uxfe7dw0hhy7.cloudfront.net/annie-helms/span_perception_stimuli/F5_st5,400,20,OK,pondís,631
16372e9a5afa74,9c3b,1,1,82,https://d3uxfe7dw0hhy7.cloudfront.net/annie-helms/span_perception_stimuli/F1_st4,398,20,OK,pondís,633
16372e9a5afa74,9c3b,1,1,83,https://d3uxfe7dw0hhy7.cloudfront.net/annie-helms/span_perception_stimuli/st6_dur3,409,20,OK,pondís,724
16372e9a5afa74,9c3b,1,1,84,https://d3uxfe7dw0hhy7.cloudfront.net/annie-helms/span_perception_stimuli/F2_dur4,406,20,OK,pondís,613
16372e9a5afa74,9c3b,1,1,85,https://d3uxfe7dw0hhy7.cloudfront.net/annie-helms/span_perception_stimuli/F6_dur3,396,20,OK,pondís,629
16372e9a5afa74,9c3b,1,1,86,https://d3uxfe7dw0hhy7.cloudfront.net/annie-helms/span_perception_stimuli/F6_st6,393,20,OK,pondís,802
16372e9a5afa74,9c3b,1,1,87,https://d3uxfe7dw0hhy7.cloudfront.net/annie-helms/span_perception_stimuli/st4_dur2,404,20,OK,pondís,531
16372e9a5afa74,9c3b,1,1,88,https://d3uxfe7dw0hhy7.cloudfront.net/annie-helms/span_perception_stimuli/F4_st6,399,20,OK,pondís,516
16372e9a5afa74,9c3b,1,1,89,https://d3uxfe7dw0hhy7.cloudfront.net/annie-helms/span_perception_stimuli/st4_dur4,413,20,OK,pondís,558
16372e9a5afa74,9c3b,1,1,90,https://d3uxfe7dw0hhy7.cloudfront.net/annie-helms/span_perception_stimuli/F6_dur2,391,15,OK,pondís,676
16372e9a5afa74,9c3b,1,1,91,https://d3uxfe7dw0hhy7.cloudfront.net/annie-helms/span_perception_stimuli/F5_st3,400,20,OK,pondís,559
16372e9a5afa74,9c3b,1,1,92,https://d3uxfe7dw0hhy7.cloudfront.net/annie-helms/span_perception_stimuli/st6_dur5,418,25,OK,pondís,598
16372e9a5afa74,9c3b,1,1,93,https://d3uxfe7dw0hhy7.cloudfront.net/annie-helms/span_perception_stimuli/F1_dur6,407,15,OK,pondís,526
16372e9a5afa74,9c3b,1,1,94,https://d3uxfe7dw0hhy7.cloudfront.net/annie-helms/span_perception_stimuli/F4_st5,399,15,OK,pondís,467
16372e9a5afa74,9c3b,1,1,95,https://d3uxfe7dw0hhy7.cloudfront.net/annie-helms/span_perception_stimuli/st3_dur1,400,15,OK,pondís,481
16372e9a5afa74,9c3b,1,1,96,https://d3uxfe7dw0hhy7.cloudfront.net/annie-helms/span_perception_stimuli/F6_st3,393,15,OK,pondís,473
16372e9a5afa74,9c3b,1,1,97,https://d3uxfe7dw0hhy7.cloudfront.net/annie-helms/span_perception_stimuli/F4_dur1,393,25,OK,pondís,544
16372e9a5afa74,9c3b,1,1,98,https://d3uxfe7dw0hhy7.cloudfront.net/annie-helms/span_perception_stimuli/F2_dur6,407,25,OK,pondís,693
16372e9a5afa74,9c3b,1,1,99,https://d3uxfe7dw0hhy7.cloudfront.net/annie-helms/span_perception_stimuli/F2_dur3,402,20,OK,pondís,701
16372e9a5afa74,9c3b,1,1,100,https://d3uxfe7dw0hhy7.cloudfront.net/annie-helms/span_perception_stimuli/F3_st3,398,20,OK,pondís,674
16372e9a5afa74,9c3b,1,1,101,https://d3uxfe7dw0hhy7.cloudfront.net/annie-helms/span_perception_stimuli/st2_dur5,418,25,OK,pondís,816
16372e9a5afa74,9c3b,1,1,102,https://d3uxfe7dw0hhy7.cloudfront.net/annie-helms/span_perception_stimuli/F5_dur2,397,25,OK,pondís,712
16372e9a5afa74,9c3b,1,1,103,https://d3uxfe7dw0hhy7.cloudfront.net/annie-helms/span_perception_stimuli/st2_dur2,404,15,OK,pondís,1064
16372e9a5afa74,9c3b,1,1,104,https://d3uxfe7dw0hhy7.cloudfront.net/annie-helms/span_perception_stimuli/st3_dur4,413,15,OK,pondís,763
16372e9a5afa74,9c3b,1,1,105,https://d3uxfe7dw0hhy7.cloudfront.net/annie-helms/span_perception_stimuli/st3_dur5,418,20,OK,pondís,703
16372e9a5afa74,9c3b,1,1,106,https://d3uxfe7dw0hhy7.cloudfront.net/annie-helms/span_perception_stimuli/st3_dur6,414,20,OK,pondís,706
16372e9a5afa74,9c3b,1,1,107,https://d3uxfe7dw0hhy7.cloudfront.net/annie-helms/span_perception_stimuli/F3_dur4,404,15,OK,pondís,708
16372e9a5afa74,9c3b,1,2,0,https://d3uxfe7dw0hhy7.cloudfront.net/annie-helms/span_perception_stimuli/F5_st1,400,15,OK,pondís,738
16372e9a5afa74,9c3b,1,2,1,https://d3uxfe7dw0hhy7.cloudfront.net/annie-helms/span_perception_stimuli/F3_dur4,404,15,OK,pondís,675
16372e9a5afa74,9c3b,1,2,2,https://d3uxfe7dw0hhy7.cloudfront.net/annie-helms/span_perception_stimuli/st3_dur6,414,15,OK,pondis,500
16372e9a5afa74,9c3b,1,2,3,https://d3uxfe7dw0hhy7.cloudfront.net/annie-helms/span_perception_stimuli/st2_dur1,400,10,OK,pondís,606
16372e9a5afa74,9c3b,1,2,4,https://d3uxfe7dw0hhy7.cloudfront.net/annie-helms/span_perception_stimuli/F1_dur6,407,20,OK,pondis,572
16372e9a5afa74,9c3b,1,2,5,https://d3uxfe7dw0hhy7.cloudfront.net/annie-helms/span_perception_stimuli/F4_dur1,393,10,OK,pondís,522
16372e9a5afa74,9c3b,1,2,6,https://d3uxfe7dw0hhy7.cloudfront.net/annie-helms/span_perception_stimuli/st2_dur6,414,20,OK,pondis,596
16372e9a5afa74,9c3b,1,2,7,https://d3uxfe7dw0hhy7.cloudfront.net/annie-helms/span_perception_stimuli/st2_dur2,404,20,OK,pondís,619
16372e9a5afa74,9c3b,1,2,8,https://d3uxfe7dw0hhy7.cloudfront.net/annie-helms/span_perception_stimuli/st1_dur4,413,25,OK,pondís,635
16372e9a5afa74,9c3b,1,2,9,https://d3uxfe7dw0hhy7.cloudfront.net/annie-helms/span_perception_stimuli/st4_dur6,414,20,OK,pondís,1379
16372e9a5afa74,9c3b,1,2,10,https://d3uxfe7dw0hhy7.cloudfront.net/annie-helms/span_perception_stimuli/F6_dur6,409,15,OK,pondís,931
16372e9a5afa74,9c3b,1,2,11,https://d3uxfe7dw0hhy7.cloudfront.net/annie-helms/span_perception_stimuli/F1_dur4,406,25,OK,pondís,700
16372e9a5afa74,9c3b,1,2,12,https://d3uxfe7dw0hhy7.cloudfront.net/annie-helms/span_perception_stimuli/st6_dur4,413,20,OK,pondis,668
16372e9a5afa74,9c3b,1,2,13,https://d3uxfe7dw0hhy7.cloudfront.net/annie-helms/span_perception_stimuli/F3_dur1,391,20,OK,pondís,648
16372e9a5afa74,9c3b,1,2,14,https://d3uxfe7dw0hhy7.cloudfront.net/annie-helms/span_perception_stimuli/F2_st5,398,20,OK,pondis,657
16372e9a5afa74,9c3b,1,2,15,https://d3uxfe7dw0hhy7.cloudfront.net/annie-helms/span_perception_stimuli/F6_st2,392,20,OK,pondís,544
16372e9a5afa74,9c3b,1,2,16,https://d3uxfe7dw0hhy7.cloudfront.net/annie-helms/span_perception_stimuli/st3_dur4,413,15,OK,pondis,611
16372e9a5afa74,9c3b,1,2,17,https://d3uxfe7dw0hhy7.cloudfront.net/annie-helms/span_perception_stimuli/st5_dur5,418,25,OK,pondís,665
16372e9a5afa74,9c3b,1,2,18,https://d3uxfe7dw0hhy7.cloudfront.net/annie-helms/span_perception_stimuli/st4_dur4,413,20,OK,pondis,627
16372e9a5afa74,9c3b,1,2,19,https://d3uxfe7dw0hhy7.cloudfront.net/annie-helms/span_perception_stimuli/F5_dur2,397,15,OK,pondís,500
16372e9a5afa74,9c3b,1,2,20,https://d3uxfe7dw0hhy7.cloudfront.net/annie-helms/span_perception_stimuli/F5_st3,400,20,OK,pondis,543
16372e9a5afa74,9c3b,1,2,21,https://d3uxfe7dw0hhy7.cloudfront.net/annie-helms/span_perception_stimuli/F3_dur6,405,20,OK,pondís,635
16372e9a5afa74,9c3b,1,2,22,https://d3uxfe7dw0hhy7.cloudfront.net/annie-helms/span_perception_stimuli/st4_dur1,400,20,OK,pondís,582
16372e9a5afa74,9c3b,1,2,23,https://d3uxfe7dw0hhy7.cloudfront.net/annie-helms/span_perception_stimuli/st6_dur5,418,20,OK,pondis,683
16372e9a5afa74,9c3b,1,2,24,https://d3uxfe7dw0hhy7.cloudfront.net/annie-helms/span_perception_stimuli/F6_st3,393,25,OK,pondís,767
16372e9a5afa74,9c3b,1,2,25,https://d3uxfe7dw0hhy7.cloudfront.net/annie-helms/span_perception_stimuli/F4_st3,399,20,OK,pondis,559
16372e9a5afa74,9c3b,1,2,26,https://d3uxfe7dw0hhy7.cloudfront.net/annie-helms/span_perception_stimuli/F5_st6,400,20,OK,pondís,710
16372e9a5afa74,9c3b,1,2,27,https://d3uxfe7dw0hhy7.cloudfront.net/annie-helms/span_perception_stimuli/st5_dur2,404,15,OK,pondís,736
16372e9a5afa74,9c3b,1,2,28,https://d3uxfe7dw0hhy7.cloudfront.net/annie-helms/span_perception_stimuli/F4_dur3,402,20,OK,pondis,530
16372e9a5afa74,9c3b,1,2,29,https://d3uxfe7dw0hhy7.cloudfront.net/annie-helms/span_perception_stimuli/F3_st5,398,15,OK,pondís,618
16372e9a5afa74,9c3b,1,2,30,https://d3uxfe7dw0hhy7.cloudfront.net/annie-helms/span_perception_stimuli/F6_st4,393,25,OK,pondis,608
16372e9a5afa74,9c3b,1,2,31,https://d3uxfe7dw0hhy7.cloudfront.net/annie-helms/span_perception_stimuli/st2_dur4,413,20,OK,pondís,610
16372e9a5afa74,9c3b,1,2,32,https://d3uxfe7dw0hhy7.cloudfront.net/annie-helms/span_perception_stimuli/F6_st6,393,20,OK,pondis,497
16372e9a5afa74,9c3b,1,2,33,https://d3uxfe7dw0hhy7.cloudfront.net/annie-helms/span_perception_stimuli/st5_dur1,400,20,OK,pondís,578
16372e9a5afa74,9c3b,1,2,34,https://d3uxfe7dw0hhy7.cloudfront.net/annie-helms/span_perception_stimuli/F3_st2,398,20,OK,pondis,582
16372e9a5afa74,9c3b,1,2,35,https://d3uxfe7dw0hhy7.cloudfront.net/annie-helms/span_perception_stimuli/st2_dur5,418,15,OK,pondís,673
16372e9a5afa74,9c3b,1,2,36,https://d3uxfe7dw0hhy7.cloudfront.net/annie-helms/span_perception_stimuli/st5_dur3,409,20,OK,pondis,585
16372e9a5afa74,9c3b,1,2,37,https://d3uxfe7dw0hhy7.cloudfront.net/annie-helms/span_perception_stimuli/st4_dur5,418,20,OK,pondís,691
16372e9a5afa74,9c3b,1,2,38,https://d3uxfe7dw0hhy7.cloudfront.net/annie-helms/span_perception_stimuli/st6_dur1,400,15,OK,pondis,816
16372e9a5afa74,9c3b,1,2,39,https://d3uxfe7dw0hhy7.cloudfront.net/annie-helms/span_perception_stimuli/F3_st3,398,25,OK,pondís,630
16372e9a5afa74,9c3b,1,2,40,https://d3uxfe7dw0hhy7.cloudfront.net/annie-helms/span_perception_stimuli/F2_st1,398,25,OK,pondís,551
16372e9a5afa74,9c3b,1,2,41,https://d3uxfe7dw0hhy7.cloudfront.net/annie-helms/span_perception_stimuli/F6_dur3,396,20,OK,pondis,535
16372e9a5afa74,9c3b,1,2,42,https://d3uxfe7dw0hhy7.cloudfront.net/annie-helms/span_perception_stimuli/st1_dur2,404,15,OK,pondís,585
16372e9a5afa74,9c3b,1,2,43,https://d3uxfe7dw0hhy7.cloudfront.net/annie-helms/span_perception_stimuli/st5_dur6,414,20,OK,pondis,487
16372e9a5afa74,9c3b,1,2,44,https://d3uxfe7dw0hhy7.cloudfront.net/annie-helms/span_perception_stimuli/F2_dur6,407,25,OK,pondís,496
16372e9a5afa74,9c3b,1,2,45,https://d3uxfe7dw0hhy7.cloudfront.net/annie-helms/span_perception_stimuli/F4_dur4,406,20,OK,pondis,551
16372e9a5afa74,9c3b,1,2,46,https://d3uxfe7dw0hhy7.cloudfront.net/annie-helms/span_perception_stimuli/F6_st5,392,25,OK,pondís,415
16372e9a5afa74,9c3b,1,2,47,https://d3uxfe7dw0hhy7.cloudfront.net/annie-helms/span_perception_stimuli/F2_st6,398,25,OK,pondis,526
16372e9a5afa74,9c3b,1,2,48,https://d3uxfe7dw0hhy7.cloudfront.net/annie-helms/span_perception_stimuli/st3_dur2,404,20,OK,pondís,446
16372e9a5afa74,9c3b,1,2,49,https://d3uxfe7dw0hhy7.cloudfront.net/annie-helms/span_perception_stimuli/F2_dur1,393,20,OK,pondis,418
16372e9a5afa74,9c3b,1,2,50,https://d3uxfe7dw0hhy7.cloudfront.net/annie-helms/span_perception_stimuli/F2_st4,398,20,OK,pondís,436
16372e9a5afa74,9c3b,1,2,51,https://d3uxfe7dw0hhy7.cloudfront.net/annie-helms/span_perception_stimuli/st6_dur2,404,20,OK,pondis,529
16372e9a5afa74,9c3b,1,2,52,https://d3uxfe7dw0hhy7.cloudfront.net/annie-helms/span_perception_stimuli/F3_dur5,408,25,OK,pondís,449
16372e9a5afa74,9c3b,1,2,53,https://d3uxfe7dw0hhy7.cloudfront.net/annie-helms/span_perception_stimuli/F5_dur4,405,20,OK,pondis,518
16372e9a5afa74,9c3b,1,2,54,https://d3uxfe7dw0hhy7.cloudfront.net/annie-helms/span_perception_stimuli/F5_st2,400,20,OK,pondís,491
16372e9a5afa74,9c3b,1,2,55,https://d3uxfe7dw0hhy7.cloudfront.net/annie-helms/span_perception_stimuli/F2_st2,398,20,OK,pondis,475
16372e9a5afa74,9c3b,1,2,56,https://d3uxfe7dw0hhy7.cloudfront.net/annie-helms/span_perception_stimuli/F2_dur5,411,25,OK,pondís,472
16372e9a5afa74,9c3b,1,2,57,https://d3uxfe7dw0hhy7.cloudfront.net/annie-helms/span_perception_stimuli/F4_st2,399,20,OK,pondis,541
16372e9a5afa74,9c3b,1,2,58,https://d3uxfe7dw0hhy7.cloudfront.net/annie-helms/span_perception_stimuli/F1_dur1,393,20,OK,pondís,446
16372e9a5afa74,9c3b,1,2,59,https://d3uxfe7dw0hhy7.cloudfront.net/annie-helms/span_perception_stimuli/F3_st4,398,20,OK,pondis,455
16372e9a5afa74,9c3b,1,2,60,https://d3uxfe7dw0hhy7.cloudfront.net/annie-helms/span_perception_stimuli/F4_dur2,398,15,OK,pondís,431
16372e9a5afa74,9c3b,1,2,61,https://d3uxfe7dw0hhy7.cloudfront.net/annie-helms/span_perception_stimuli/F1_st5,398,25,OK,pondis,457
16372e9a5afa74,9c3b,1,2,62,https://d3uxfe7dw0hhy7.cloudfront.net/annie-helms/span_perception_stimuli/F4_st6,399,20,OK,pondís,485
16372e9a5afa74,9c3b,1,2,63,https://d3uxfe7dw0hhy7.cloudfront.net/annie-helms/span_perception_stimuli/st3_dur3,409,25,OK,pondis,542
16372e9a5afa74,9c3b,1,2,64,https://d3uxfe7dw0hhy7.cloudfront.net/annie-helms/span_perception_stimuli/F5_dur5,410,30,OK,pondís,453
16372e9a5afa74,9c3b,1,2,65,https://d3uxfe7dw0hhy7.cloudfront.net/annie-helms/span_perception_stimuli/st3_dur5,418,20,OK,pondis,433
16372e9a5afa74,9c3b,1,2,66,https://d3uxfe7dw0hhy7.cloudfront.net/annie-helms/span_perception_stimuli/st3_dur1,400,20,OK,pondís,498
16372e9a5afa74,9c3b,1,2,67,https://d3uxfe7dw0hhy7.cloudfront.net/annie-helms/span_perception_stimuli/st1_dur5,418,20,OK,pondis,447
16372e9a5afa74,9c3b,1,2,68,https://d3uxfe7dw0hhy7.cloudfront.net/annie-helms/span_perception_stimuli/st1_dur1,400,20,OK,pondís,355
16372e9a5afa74,9c3b,1,2,69,https://d3uxfe7dw0hhy7.cloudfront.net/annie-helms/span_perception_stimuli/F1_st3,398,20,OK,pondis,490
16372e9a5afa74,9c3b,1,2,70,https://d3uxfe7dw0hhy7.cloudfront.net/annie-helms/span_perception_stimuli/F2_dur2,397,20,OK,pondís,550
16372e9a5afa74,9c3b,1,2,71,https://d3uxfe7dw0hhy7.cloudfront.net/annie-helms/span_perception_stimuli/F4_dur6,408,20,OK,pondis,521
16372e9a5afa74,9c3b,1,2,72,https://d3uxfe7dw0hhy7.cloudfront.net/annie-helms/span_perception_stimuli/F3_dur2,395,20,OK,pondís,355
16372e9a5afa74,9c3b,1,2,73,https://d3uxfe7dw0hhy7.cloudfront.net/annie-helms/span_perception_stimuli/F1_st4,398,20,OK,pondis,463
16372e9a5afa74,9c3b,1,2,74,https://d3uxfe7dw0hhy7.cloudfront.net/annie-helms/span_perception_stimuli/F1_st1,393,25,OK,pondís,479
16372e9a5afa74,9c3b,1,2,75,https://d3uxfe7dw0hhy7.cloudfront.net/annie-helms/span_perception_stimuli/F5_dur6,407,15,OK,pondis,437
16372e9a5afa74,9c3b,1,2,76,https://d3uxfe7dw0hhy7.cloudfront.net/annie-helms/span_perception_stimuli/F2_dur3,402,25,OK,pondís,527
16372e9a5afa74,9c3b,1,2,77,https://d3uxfe7dw0hhy7.cloudfront.net/annie-helms/span_perception_stimuli/F6_dur1,387,25,OK,pondis,552
16372e9a5afa74,9c3b,1,2,78,https://d3uxfe7dw0hhy7.cloudfront.net/annie-helms/span_perception_stimuli/st6_dur6,414,20,OK,pondís,519
16372e9a5afa74,9c3b,1,2,79,https://d3uxfe7dw0hhy7.cloudfront.net/annie-helms/span_perception_stimuli/F3_dur3,400,15,OK,pondís,566
16372e9a5afa74,9c3b,1,2,80,https://d3uxfe7dw0hhy7.cloudfront.net/annie-helms/span_perception_stimuli/st4_dur2,404,15,OK,pondís,556
16372e9a5afa74,9c3b,1,2,81,https://d3uxfe7dw0hhy7.cloudfront.net/annie-helms/span_perception_stimuli/F1_dur5,410,25,OK,pondis,519
16372e9a5afa74,9c3b,1,2,82,https://d3uxfe7dw0hhy7.cloudfront.net/annie-helms/span_perception_stimuli/F2_dur4,406,20,OK,pondís,473
16372e9a5afa74,9c3b,1,2,83,https://d3uxfe7dw0hhy7.cloudfront.net/annie-helms/span_perception_stimuli/F1_st2,398,20,OK,pondis,447
16372e9a5afa74,9c3b,1,2,84,https://d3uxfe7dw0hhy7.cloudfront.net/annie-helms/span_perception_stimuli/st2_dur3,408,20,OK,pondís,380
16372e9a5afa74,9c3b,1,2,85,https://d3uxfe7dw0hhy7.cloudfront.net/annie-helms/span_perception_stimuli/st5_dur4,413,25,OK,pondis,492
16372e9a5afa74,9c3b,1,2,86,https://d3uxfe7dw0hhy7.cloudfront.net/annie-helms/span_perception_stimuli/F6_dur5,405,25,OK,pondís,486
16372e9a5afa74,9c3b,1,2,87,https://d3uxfe7dw0hhy7.cloudfront.net/annie-helms/span_perception_stimuli/F4_st1,399,25,OK,pondis,462
16372e9a5afa74,9c3b,1,2,88,https://d3uxfe7dw0hhy7.cloudfront.net/annie-helms/span_perception_stimuli/F5_st4,400,20,OK,pondís,436
16372e9a5afa74,9c3b,1,2,89,https://d3uxfe7dw0hhy7.cloudfront.net/annie-helms/span_perception_stimuli/F6_dur2,391,25,OK,pondis,493
16372e9a5afa74,9c3b,1,2,90,https://d3uxfe7dw0hhy7.cloudfront.net/annie-helms/span_perception_stimuli/F4_dur5,411,20,OK,pondís,533
16372e9a5afa74,9c3b,1,2,91,https://d3uxfe7dw0hhy7.cloudfront.net/annie-helms/span_perception_stimuli/F1_dur2,397,20,OK,pondis,493
16372e9a5afa74,9c3b,1,2,92,https://d3uxfe7dw0hhy7.cloudfront.net/annie-helms/span_perception_stimuli/F4_st5,399,20,OK,pondís,495
16372e9a5afa74,9c3b,1,2,93,https://d3uxfe7dw0hhy7.cloudfront.net/annie-helms/span_perception_stimuli/st1_dur3,409,20,OK,pondis,427
16372e9a5afa74,9c3b,1,2,94,https://d3uxfe7dw0hhy7.cloudfront.net/annie-helms/span_perception_stimuli/F6_dur4,400,15,OK,pondís,523
16372e9a5afa74,9c3b,1,2,95,https://d3uxfe7dw0hhy7.cloudfront.net/annie-helms/span_perception_stimuli/st6_dur3,409,25,OK,pondis,471
16372e9a5afa74,9c3b,1,2,96,https://d3uxfe7dw0hhy7.cloudfront.net/annie-helms/span_perception_stimuli/F5_dur1,392,20,OK,pondís,401
16372e9a5afa74,9c3b,1,2,97,https://d3uxfe7dw0hhy7.cloudfront.net/annie-helms/span_perception_stimuli/st4_dur3,409,15,OK,pondis,531
16372e9a5afa74,9c3b,1,2,98,https://d3uxfe7dw0hhy7.cloudfront.net/annie-helms/span_perception_stimuli/F3_st1,398,20,OK,pondís,479
16372e9a5afa74,9c3b,1,2,99,https://d3uxfe7dw0hhy7.cloudfront.net/annie-helms/span_perception_stimuli/F6_st1,392,20,OK,pondis,410
16372e9a5afa74,9c3b,1,2,100,https://d3uxfe7dw0hhy7.cloudfront.net/annie-helms/span_perception_stimuli/st1_dur6,415,20,OK,pondís,348
16372e9a5afa74,9c3b,1,2,101,https://d3uxfe7dw0hhy7.cloudfront.net/annie-helms/span_perception_stimuli/F1_st6,398,20,OK,pondis,358
16372e9a5afa74,9c3b,1,2,102,https://d3uxfe7dw0hhy7.cloudfront.net/annie-helms/span_perception_stimuli/F1_dur3,402,15,OK,pondís,415
16372e9a5afa74,9c3b,1,2,103,https://d3uxfe7dw0hhy7.cloudfront.net/annie-helms/span_perception_stimuli/F4_st4,399,20,OK,pondis,399
16372e9a5afa74,9c3b,1,2,104,https://d3uxfe7dw0hhy7.cloudfront.net/annie-helms/span_perception_stimuli/F3_st6,398,20,OK,pondís,343
16372e9a5afa74,9c3b,1,2,105,https://d3uxfe7dw0hhy7.cloudfront.net/annie-helms/span_perception_stimuli/F5_dur3,401,20,OK,pondis,425
16372e9a5afa74,9c3b,1,2,106,https://d3uxfe7dw0hhy7.cloudfront.net/annie-helms/span_perception_stimuli/F2_st3,398,20,OK,pondís,486
16372e9a5afa74,9c3b,1,2,107,https://d3uxfe7dw0hhy7.cloudfront.net/annie-helms/span_perception_stimuli/F5_st5,400,25,OK,pondis,496
16372e9a5afa74,9c3b,1,3,0,https://d3uxfe7dw0hhy7.cloudfront.net/annie-helms/span_perception_stimuli/st5_dur6,414,15,OK,pondís,1266
16372e9a5afa74,9c3b,1,3,1,https://d3uxfe7dw0hhy7.cloudfront.net/annie-helms/span_perception_stimuli/F1_st6,398,20,OK,pondis,596
16372e9a5afa74,9c3b,1,3,2,https://d3uxfe7dw0hhy7.cloudfront.net/annie-helms/span_perception_stimuli/st5_dur1,400,15,OK,pondís,525
16372e9a5afa74,9c3b,1,3,3,https://d3uxfe7dw0hhy7.cloudfront.net/annie-helms/span_perception_stimuli/st1_dur4,413,20,OK,pondís,604
16372e9a5afa74,9c3b,1,3,4,https://d3uxfe7dw0hhy7.cloudfront.net/annie-helms/span_perception_stimuli/st3_dur4,413,20,OK,pondís,735
16372e9a5afa74,9c3b,1,3,5,https://d3uxfe7dw0hhy7.cloudfront.net/annie-helms/span_perception_stimuli/F3_dur2,395,25,OK,pondís,653
16372e9a5afa74,9c3b,1,3,6,https://d3uxfe7dw0hhy7.cloudfront.net/annie-helms/span_perception_stimuli/F3_st6,398,20,OK,pondís,578
16372e9a5afa74,9c3b,1,3,7,https://d3uxfe7dw0hhy7.cloudfront.net/annie-helms/span_perception_stimuli/F6_st4,393,20,OK,pondís,696
16372e9a5afa74,9c3b,1,3,8,https://d3uxfe7dw0hhy7.cloudfront.net/annie-helms/span_perception_stimuli/F1_dur4,406,20,OK,pondís,537
16372e9a5afa74,9c3b,1,3,9,https://d3uxfe7dw0hhy7.cloudfront.net/annie-helms/span_perception_stimuli/F5_st1,400,15,OK,pondís,576
16372e9a5afa74,9c3b,1,3,10,https://d3uxfe7dw0hhy7.cloudfront.net/annie-helms/span_perception_stimuli/st2_dur2,404,20,OK,pondís,673
16372e9a5afa74,9c3b,1,3,11,https://d3uxfe7dw0hhy7.cloudfront.net/annie-helms/span_perception_stimuli/st2_dur6,414,15,OK,pondís,616
16372e9a5afa74,9c3b,1,3,12,https://d3uxfe7dw0hhy7.cloudfront.net/annie-helms/span_perception_stimuli/st2_dur5,418,25,OK,pondís,1110
16372e9a5afa74,9c3b,1,3,13,https://d3uxfe7dw0hhy7.cloudfront.net/annie-helms/span_perception_stimuli/st2_dur1,400,20,OK,pondís,1180
16372e9a5afa74,9c3b,1,3,14,https://d3uxfe7dw0hhy7.cloudfront.net/annie-helms/span_perception_stimuli/st6_dur3,409,25,OK,pondís,955
16372e9a5afa74,9c3b,1,3,15,https://d3uxfe7dw0hhy7.cloudfront.net/annie-helms/span_perception_stimuli/F3_st5,398,15,OK,pondís,1717
16372e9a5afa74,9c3b,1,3,16,https://d3uxfe7dw0hhy7.cloudfront.net/annie-helms/span_perception_stimuli/F6_dur1,387,20,OK,pondís,977
16372e9a5afa74,9c3b,1,3,17,https://d3uxfe7dw0hhy7.cloudfront.net/annie-helms/span_perception_stimuli/F2_st3,398,20,OK,pondís,573
16372e9a5afa74,9c3b,1,3,18,https://d3uxfe7dw0hhy7.cloudfront.net/annie-helms/span_perception_stimuli/st6_dur1,400,20,OK,pondís,654
16372e9a5afa74,9c3b,1,3,19,https://d3uxfe7dw0hhy7.cloudfront.net/annie-helms/span_perception_stimuli/st1_dur3,409,15,OK,pondís,706
16372e9a5afa74,9c3b,1,3,20,https://d3uxfe7dw0hhy7.cloudfront.net/annie-helms/span_perception_stimuli/st5_dur3,409,20,OK,pondís,745
16372e9a5afa74,9c3b,1,3,21,https://d3uxfe7dw0hhy7.cloudfront.net/annie-helms/span_perception_stimuli/F4_dur5,411,20,OK,pondís,667
16372e9a5afa74,9c3b,1,3,22,https://d3uxfe7dw0hhy7.cloudfront.net/annie-helms/span_perception_stimuli/F5_dur4,405,25,OK,pondis,508
16372e9a5afa74,9c3b,1,3,23,https://d3uxfe7dw0hhy7.cloudfront.net/annie-helms/span_perception_stimuli/F5_st5,400,25,OK,pondís,485
16372e9a5afa74,9c3b,1,3,24,https://d3uxfe7dw0hhy7.cloudfront.net/annie-helms/span_perception_stimuli/F5_st6,400,15,OK,pondis,478
16372e9a5afa74,9c3b,1,3,25,https://d3uxfe7dw0hhy7.cloudfront.net/annie-helms/span_perception_stimuli/F1_dur5,410,15,OK,pondís,503
16372e9a5afa74,9c3b,1,3,26,https://d3uxfe7dw0hhy7.cloudfront.net/annie-helms/span_perception_stimuli/st1_dur6,415,20,OK,pondis,491
16372e9a5afa74,9c3b,1,3,27,https://d3uxfe7dw0hhy7.cloudfront.net/annie-helms/span_perception_stimuli/F4_st1,399,20,OK,pondís,441
16372e9a5afa74,9c3b,1,3,28,https://d3uxfe7dw0hhy7.cloudfront.net/annie-helms/span_perception_stimuli/F2_dur1,393,25,OK,pondis,417
16372e9a5afa74,9c3b,1,3,29,https://d3uxfe7dw0hhy7.cloudfront.net/annie-helms/span_perception_stimuli/F1_dur6,407,30,OK,pondís,394
16372e9a5afa74,9c3b,1,3,30,https://d3uxfe7dw0hhy7.cloudfront.net/annie-helms/span_perception_stimuli/F4_dur1,393,20,OK,pondis,423
16372e9a5afa74,9c3b,1,3,31,https://d3uxfe7dw0hhy7.cloudfront.net/annie-helms/span_perception_stimuli/st2_dur4,413,20,OK,pondís,498
16372e9a5afa74,9c3b,1,3,32,https://d3uxfe7dw0hhy7.cloudfront.net/annie-helms/span_perception_stimuli/F3_st4,398,25,OK,pondis,486
16372e9a5afa74,9c3b,1,3,33,https://d3uxfe7dw0hhy7.cloudfront.net/annie-helms/span_perception_stimuli/F5_st4,400,20,OK,pondís,437
16372e9a5afa74,9c3b,1,3,34,https://d3uxfe7dw0hhy7.cloudfront.net/annie-helms/span_perception_stimuli/st5_dur5,418,20,OK,pondis,483
16372e9a5afa74,9c3b,1,3,35,https://d3uxfe7dw0hhy7.cloudfront.net/annie-helms/span_perception_stimuli/F1_st2,398,20,OK,pondís,459
16372e9a5afa74,9c3b,1,3,36,https://d3uxfe7dw0hhy7.cloudfront.net/annie-helms/span_perception_stimuli/F6_st6,393,20,OK,pondis,423
16372e9a5afa74,9c3b,1,3,37,https://d3uxfe7dw0hhy7.cloudfront.net/annie-helms/span_perception_stimuli/F6_st5,392,20,OK,pondís,428
16372e9a5afa74,9c3b,1,3,38,https://d3uxfe7dw0hhy7.cloudfront.net/annie-helms/span_perception_stimuli/st6_dur6,414,20,OK,pondis,406
16372e9a5afa74,9c3b,1,3,39,https://d3uxfe7dw0hhy7.cloudfront.net/annie-helms/span_perception_stimuli/F4_dur2,398,20,OK,pondís,446
16372e9a5afa74,9c3b,1,3,40,https://d3uxfe7dw0hhy7.cloudfront.net/annie-helms/span_perception_stimuli/F6_dur6,409,25,OK,pondis,429
16372e9a5afa74,9c3b,1,3,41,https://d3uxfe7dw0hhy7.cloudfront.net/annie-helms/span_perception_stimuli/F2_st4,398,20,OK,pondís,427
16372e9a5afa74,9c3b,1,3,42,https://d3uxfe7dw0hhy7.cloudfront.net/annie-helms/span_perception_stimuli/F5_dur6,407,15,OK,pondis,422
16372e9a5afa74,9c3b,1,3,43,https://d3uxfe7dw0hhy7.cloudfront.net/annie-helms/span_perception_stimuli/F6_st1,392,20,OK,pondís,415
16372e9a5afa74,9c3b,1,3,44,https://d3uxfe7dw0hhy7.cloudfront.net/annie-helms/span_perception_stimuli/F4_dur4,406,20,OK,pondis,451
16372e9a5afa74,9c3b,1,3,45,https://d3uxfe7dw0hhy7.cloudfront.net/annie-helms/span_perception_stimuli/st1_dur5,418,20,OK,pondís,469
16372e9a5afa74,9c3b,1,3,46,https://d3uxfe7dw0hhy7.cloudfront.net/annie-helms/span_perception_stimuli/st4_dur3,409,20,OK,pondis,407
16372e9a5afa74,9c3b,1,3,47,https://d3uxfe7dw0hhy7.cloudfront.net/annie-helms/span_perception_stimuli/st1_dur1,400,25,OK,pondís,460
16372e9a5afa74,9c3b,1,3,48,https://d3uxfe7dw0hhy7.cloudfront.net/annie-helms/span_perception_stimuli/F4_dur3,402,20,OK,pondis,469
16372e9a5afa74,9c3b,1,3,49,https://d3uxfe7dw0hhy7.cloudfront.net/annie-helms/span_perception_stimuli/F3_st2,398,20,OK,pondís,437
16372e9a5afa74,9c3b,1,3,50,https://d3uxfe7dw0hhy7.cloudfront.net/annie-helms/span_perception_stimuli/st3_dur1,400,20,OK,pondis,439
16372e9a5afa74,9c3b,1,3,51,https://d3uxfe7dw0hhy7.cloudfront.net/annie-helms/span_perception_stimuli/F6_dur2,391,15,OK,pondís,421
16372e9a5afa74,9c3b,1,3,52,https://d3uxfe7dw0hhy7.cloudfront.net/annie-helms/span_perception_stimuli/F1_dur2,397,105,OK,pondis,514
16372e9a5afa74,9c3b,1,3,53,https://d3uxfe7dw0hhy7.cloudfront.net/annie-helms/span_perception_stimuli/st5_dur4,413,20,OK,pondís,435
16372e9a5afa74,9c3b,1,3,54,https://d3uxfe7dw0hhy7.cloudfront.net/annie-helms/span_perception_stimuli/st4_dur4,413,20,OK,pondis,452
16372e9a5afa74,9c3b,1,3,55,https://d3uxfe7dw0hhy7.cloudfront.net/annie-helms/span_perception_stimuli/F6_st3,393,20,OK,pondís,507
16372e9a5afa74,9c3b,1,3,56,https://d3uxfe7dw0hhy7.cloudfront.net/annie-helms/span_perception_stimuli/F6_dur4,400,25,OK,pondis,492
16372e9a5afa74,9c3b,1,3,57,https://d3uxfe7dw0hhy7.cloudfront.net/annie-helms/span_perception_stimuli/F4_st3,399,25,OK,pondís,478
16372e9a5afa74,9c3b,1,3,58,https://d3uxfe7dw0hhy7.cloudfront.net/annie-helms/span_perception_stimuli/F3_st3,398,25,OK,pondis,462
16372e9a5afa74,9c3b,1,3,59,https://d3uxfe7dw0hhy7.cloudfront.net/annie-helms/span_perception_stimuli/st3_dur5,418,25,OK,pondís,495
16372e9a5afa74,9c3b,1,3,60,https://d3uxfe7dw0hhy7.cloudfront.net/annie-helms/span_perception_stimuli/F1_dur1,393,15,OK,pondis,448
16372e9a5afa74,9c3b,1,3,61,https://d3uxfe7dw0hhy7.cloudfront.net/annie-helms/span_perception_stimuli/F1_st1,393,20,OK,pondís,546
16372e9a5afa74,9c3b,1,3,62,https://d3uxfe7dw0hhy7.cloudfront.net/annie-helms/span_perception_stimuli/st4_dur2,404,15,OK,pondis,508
16372e9a5afa74,9c3b,1,3,63,https://d3uxfe7dw0hhy7.cloudfront.net/annie-helms/span_perception_stimuli/F4_st5,399,20,OK,pondís,461
16372e9a5afa74,9c3b,1,3,64,https://d3uxfe7dw0hhy7.cloudfront.net/annie-helms/span_perception_stimuli/st4_dur6,414,20,OK,pondis,544
16372e9a5afa74,9c3b,1,3,65,https://d3uxfe7dw0hhy7.cloudfront.net/annie-helms/span_perception_stimuli/F2_st2,398,20,OK,pondís,503
16372e9a5afa74,9c3b,1,3,66,https://d3uxfe7dw0hhy7.cloudfront.net/annie-helms/span_perception_stimuli/F2_dur2,397,15,OK,pondis,485
16372e9a5afa74,9c3b,1,3,67,https://d3uxfe7dw0hhy7.cloudfront.net/annie-helms/span_perception_stimuli/F2_dur4,406,20,OK,pondís,393
16372e9a5afa74,9c3b,1,3,68,https://d3uxfe7dw0hhy7.cloudfront.net/annie-helms/span_perception_stimuli/F3_dur3,400,20,OK,pondis,450
16372e9a5afa74,9c3b,1,3,69,https://d3uxfe7dw0hhy7.cloudfront.net/annie-helms/span_perception_stimuli/F3_dur4,404,25,OK,pondís,436
16372e9a5afa74,9c3b,1,3,70,https://d3uxfe7dw0hhy7.cloudfront.net/annie-helms/span_perception_stimuli/F6_dur5,405,25,OK,pondis,444
16372e9a5afa74,9c3b,1,3,71,https://d3uxfe7dw0hhy7.cloudfront.net/annie-helms/span_perception_stimuli/F1_st3,398,15,OK,pondís,443
16372e9a5afa74,9c3b,1,3,72,https://d3uxfe7dw0hhy7.cloudfront.net/annie-helms/span_perception_stimuli/F4_dur6,408,25,OK,pondis,485
16372e9a5afa74,9c3b,1,3,73,https://d3uxfe7dw0hhy7.cloudfront.net/annie-helms/span_perception_stimuli/F4_st6,399,30,OK,pondís,407
16372e9a5afa74,9c3b,1,3,74,https://d3uxfe7dw0hhy7.cloudfront.net/annie-helms/span_perception_stimuli/st4_dur5,418,20,OK,pondis,530
16372e9a5afa74,9c3b,1,3,75,https://d3uxfe7dw0hhy7.cloudfront.net/annie-helms/span_perception_stimuli/F5_st3,400,15,OK,pondís,476
16372e9a5afa74,9c3b,1,3,76,https://d3uxfe7dw0hhy7.cloudfront.net/annie-helms/span_perception_stimuli/st6_dur2,404,15,OK,pondis,439
16372e9a5afa74,9c3b,1,3,77,https://d3uxfe7dw0hhy7.cloudfront.net/annie-helms/span_perception_stimuli/F2_dur3,402,15,OK,pondís,507
16372e9a5afa74,9c3b,1,3,78,https://d3uxfe7dw0hhy7.cloudfront.net/annie-helms/span_perception_stimuli/F1_st4,398,20,OK,pondis,418
16372e9a5afa74,9c3b,1,3,79,https://d3uxfe7dw0hhy7.cloudfront.net/annie-helms/span_perception_stimuli/st2_dur3,408,20,OK,pondís,400
16372e9a5afa74,9c3b,1,3,80,https://d3uxfe7dw0hhy7.cloudfront.net/annie-helms/span_perception_stimuli/F5_st2,400,20,OK,pondis,494
16372e9a5afa74,9c3b,1,3,81,https://d3uxfe7dw0hhy7.cloudfront.net/annie-helms/span_perception_stimuli/F5_dur3,401,20,OK,pondís,490
16372e9a5afa74,9c3b,1,3,82,https://d3uxfe7dw0hhy7.cloudfront.net/annie-helms/span_perception_stimuli/F4_st2,399,20,OK,pondis,454
16372e9a5afa74,9c3b,1,3,83,https://d3uxfe7dw0hhy7.cloudfront.net/annie-helms/span_perception_stimuli/F6_dur3,396,20,OK,pondís,483
16372e9a5afa74,9c3b,1,3,84,https://d3uxfe7dw0hhy7.cloudfront.net/annie-helms/span_perception_stimuli/F5_dur5,410,20,OK,pondis,509
16372e9a5afa74,9c3b,1,3,85,https://d3uxfe7dw0hhy7.cloudfront.net/annie-helms/span_perception_stimuli/F2_dur6,407,20,OK,pondís,487
16372e9a5afa74,9c3b,1,3,86,https://d3uxfe7dw0hhy7.cloudfront.net/annie-helms/span_perception_stimuli/F2_st1,398,20,OK,pondis,617
16372e9a5afa74,9c3b,1,3,87,https://d3uxfe7dw0hhy7.cloudfront.net/annie-helms/span_perception_stimuli/F1_st5,398,15,OK,pondís,530
16372e9a5afa74,9c3b,1,3,88,https://d3uxfe7dw0hhy7.cloudfront.net/annie-helms/span_perception_stimuli/F6_st2,392,20,OK,pondis,583
16372e9a5afa74,9c3b,1,3,89,https://d3uxfe7dw0hhy7.cloudfront.net/annie-helms/span_perception_stimuli/F3_dur1,391,15,OK,pondís,669
16372e9a5afa74,9c3b,1,3,90,https://d3uxfe7dw0hhy7.cloudfront.net/annie-helms/span_perception_stimuli/F2_st6,398,20,OK,pondis,607
16372e9a5afa74,9c3b,1,3,91,https://d3uxfe7dw0hhy7.cloudfront.net/annie-helms/span_perception_stimuli/st4_dur1,400,15,OK,pondís,662
16372e9a5afa74,9c3b,1,3,92,https://d3uxfe7dw0hhy7.cloudfront.net/annie-helms/span_perception_stimuli/F5_dur1,392,20,OK,pondis,684
16372e9a5afa74,9c3b,1,3,93,https://d3uxfe7dw0hhy7.cloudfront.net/annie-helms/span_perception_stimuli/F2_dur5,411,20,OK,pondís,614
16372e9a5afa74,9c3b,1,3,94,https://d3uxfe7dw0hhy7.cloudfront.net/annie-helms/span_perception_stimuli/st3_dur3,409,20,OK,pondis,578
16372e9a5afa74,9c3b,1,3,95,https://d3uxfe7dw0hhy7.cloudfront.net/annie-helms/span_perception_stimuli/F3_dur5,408,20,OK,pondís,517
16372e9a5afa74,9c3b,1,3,96,https://d3uxfe7dw0hhy7.cloudfront.net/annie-helms/span_perception_stimuli/F5_dur2,397,20,OK,pondis,618
16372e9a5afa74,9c3b,1,3,97,https://d3uxfe7dw0hhy7.cloudfront.net/annie-helms/span_perception_stimuli/F4_st4,399,20,OK,pondís,758
16372e9a5afa74,9c3b,1,3,98,https://d3uxfe7dw0hhy7.cloudfront.net/annie-helms/span_perception_stimuli/F1_dur3,402,20,OK,pondis,676
16372e9a5afa74,9c3b,1,3,99,https://d3uxfe7dw0hhy7.cloudfront.net/annie-helms/span_perception_stimuli/F3_st1,398,25,OK,pondís,695
16372e9a5afa74,9c3b,1,3,100,https://d3uxfe7dw0hhy7.cloudfront.net/annie-helms/span_perception_stimuli/F3_dur6,405,20,OK,pondis,619
16372e9a5afa74,9c3b,1,3,101,https://d3uxfe7dw0hhy7.cloudfront.net/annie-helms/span_perception_stimuli/st6_dur5,418,20,OK,pondís,644
16372e9a5afa74,9c3b,1,3,102,https://d3uxfe7dw0hhy7.cloudfront.net/annie-helms/span_perception_stimuli/st5_dur2,404,20,OK,pondís,614
16372e9a5afa74,9c3b,1,3,103,https://d3uxfe7dw0hhy7.cloudfront.net/annie-helms/span_perception_stimuli/st3_dur2,404,20,OK,pondís,644
16372e9a5afa74,9c3b,1,3,104,https://d3uxfe7dw0hhy7.cloudfront.net/annie-helms/span_perception_stimuli/st1_dur2,404,20,OK,pondís,676
16372e9a5afa74,9c3b,1,3,105,https://d3uxfe7dw0hhy7.cloudfront.net/annie-helms/span_perception_stimuli/st3_dur6,414,20,OK,pondis,528
16372e9a5afa74,9c3b,1,3,106,https://d3uxfe7dw0hhy7.cloudfront.net/annie-helms/span_perception_stimuli/F2_st5,398,20,OK,pondís,564
16372e9a5afa74,9c3b,1,3,107,https://d3uxfe7dw0hhy7.cloudfront.net/annie-helms/span_perception_stimuli/st6_dur4,413,20,OK,pondis,809
16372f1aaf14c3,9842,1,1,0,https://d3uxfe7dw0hhy7.cloudfront.net/annie-helms/span_perception_stimuli/F4_dur4,406,950,OK,pondis,3479
16372f1aca5903,947a,1,1,0,https://d3uxfe7dw0hhy7.cloudfront.net/annie-helms/span_perception_stimuli/F3_st6,398,650,OK,pondís,3184
16372f1aca5903,947a,1,1,1,https://d3uxfe7dw0hhy7.cloudfront.net/annie-helms/span_perception_stimuli/st6_dur3,409,585,OK,pondís,2019
16372f1aaf14c3,9842,1,1,1,https://d3uxfe7dw0hhy7.cloudfront.net/annie-helms/span_perception_stimuli/F4_dur3,402,565,OK,pondis,2439
16372f1aca5903,947a,1,1,2,https://d3uxfe7dw0hhy7.cloudfront.net/annie-helms/span_perception_stimuli/F6_st5,392,535,OK,pondís,1079
16372f1aaf14c3,9842,1,1,2,https://d3uxfe7dw0hhy7.cloudfront.net/annie-helms/span_perception_stimuli/F3_st5,398,555,OK,pondis,2174
16372f1aca5903,947a,1,1,3,https://d3uxfe7dw0hhy7.cloudfront.net/annie-helms/span_perception_stimuli/F6_st2,392,520,OK,pondís,837
16372f1aaf14c3,9842,1,1,3,https://d3uxfe7dw0hhy7.cloudfront.net/annie-helms/span_perception_stimuli/F2_dur1,393,570,OK,pondis,1738
16372f1aca5903,947a,1,1,4,https://d3uxfe7dw0hhy7.cloudfront.net/annie-helms/span_perception_stimuli/st1_dur3,409,525,OK,pondís,759
16372f1aca5903,947a,1,1,5,https://d3uxfe7dw0hhy7.cloudfront.net/annie-helms/span_perception_stimuli/F5_dur2,397,160,OK,pondís,648
16372f1aaf14c3,9842,1,1,4,https://d3uxfe7dw0hhy7.cloudfront.net/annie-helms/span_perception_stimuli/F6_dur6,409,545,OK,pondís,2691
16372f1aca5903,947a,1,1,6,https://d3uxfe7dw0hhy7.cloudfront.net/annie-helms/span_perception_stimuli/st3_dur4,413,530,OK,pondís,773
16372f1aaf14c3,9842,1,1,5,https://d3uxfe7dw0hhy7.cloudfront.net/annie-helms/span_perception_stimuli/F6_st2,392,40,OK,pondís,1414
16372f1aca5903,947a,1,1,7,https://d3uxfe7dw0hhy7.cloudfront.net/annie-helms/span_perception_stimuli/F5_dur3,401,530,OK,pondís,806
16372f1aaf14c3,9842,1,1,6,https://d3uxfe7dw0hhy7.cloudfront.net/annie-helms/span_perception_stimuli/F6_dur1,387,605,OK,pondís,1642
16372f1aca5903,947a,1,1,8,https://d3uxfe7dw0hhy7.cloudfront.net/annie-helms/span_perception_stimuli/F2_st6,398,550,OK,pondís,801
16372f1aca5903,947a,1,1,9,https://d3uxfe7dw0hhy7.cloudfront.net/annie-helms/span_perception_stimuli/F4_st4,399,545,OK,pondís,691
16372f1aaf14c3,9842,1,1,7,https://d3uxfe7dw0hhy7.cloudfront.net/annie-helms/span_perception_stimuli/st2_dur5,418,550,OK,pondís,1635
16372f1aca5903,947a,1,1,10,https://d3uxfe7dw0hhy7.cloudfront.net/annie-helms/span_perception_stimuli/st2_dur5,418,20,OK,pondís,716
16372f1aaf14c3,9842,1,1,8,https://d3uxfe7dw0hhy7.cloudfront.net/annie-helms/span_perception_stimuli/F2_dur2,397,545,OK,pondís,1597
16372f1aaf14c3,9842,1,1,9,https://d3uxfe7dw0hhy7.cloudfront.net/annie-helms/span_perception_stimuli/F4_st1,399,565,OK,pondís,1734
16372f1aca5903,947a,1,1,11,https://d3uxfe7dw0hhy7.cloudfront.net/annie-helms/span_perception_stimuli/st4_dur1,400,620,OK,pondís,6444
16372f1aaf14c3,9842,1,1,10,https://d3uxfe7dw0hhy7.cloudfront.net/annie-helms/span_perception_stimuli/st4_dur3,409,565,OK,pondis,1462
16372f1aca5903,947a,1,1,12,https://d3uxfe7dw0hhy7.cloudfront.net/annie-helms/span_perception_stimuli/F3_st2,398,615,OK,pondís,837
16372f1aaf14c3,9842,1,1,11,https://d3uxfe7dw0hhy7.cloudfront.net/annie-helms/span_perception_stimuli/st4_dur5,418,560,OK,pondís,1031
16372f1aca5903,947a,1,1,13,https://d3uxfe7dw0hhy7.cloudfront.net/annie-helms/span_perception_stimuli/F3_dur2,395,530,OK,pondís,822
16372f1aaf14c3,9842,1,1,12,https://d3uxfe7dw0hhy7.cloudfront.net/annie-helms/span_perception_stimuli/F5_dur1,392,565,OK,pondís,1458
16372f1aca5903,947a,1,1,14,https://d3uxfe7dw0hhy7.cloudfront.net/annie-helms/span_perception_stimuli/F2_st1,398,525,OK,pondís,677
16372f1aaf14c3,9842,1,1,13,https://d3uxfe7dw0hhy7.cloudfront.net/annie-helms/span_perception_stimuli/st1_dur3,409,40,OK,pondís,2055
16372f1aca5903,947a,1,1,15,https://d3uxfe7dw0hhy7.cloudfront.net/annie-helms/span_perception_stimuli/F5_st5,400,530,OK,pondís,591
16372f1aca5903,947a,1,1,16,https://d3uxfe7dw0hhy7.cloudfront.net/annie-helms/span_perception_stimuli/st3_dur5,418,530,OK,pondís,674
16372f1aaf14c3,9842,1,1,14,https://d3uxfe7dw0hhy7.cloudfront.net/annie-helms/span_perception_stimuli/F4_dur1,393,590,OK,pondís,2358
16372f1aca5903,947a,1,1,17,https://d3uxfe7dw0hhy7.cloudfront.net/annie-helms/span_perception_stimuli/F3_dur1,391,540,OK,pondís,587
16372f1aca5903,947a,1,1,18,https://d3uxfe7dw0hhy7.cloudfront.net/annie-helms/span_perception_stimuli/st5_dur2,404,590,OK,pondís,623
16372f1aaf14c3,9842,1,1,15,https://d3uxfe7dw0hhy7.cloudfront.net/annie-helms/span_perception_stimuli/st4_dur6,414,615,OK,pondís,2847
16372f1aaf14c3,9842,1,1,16,https://d3uxfe7dw0hhy7.cloudfront.net/annie-helms/span_perception_stimuli/F3_dur4,404,610,OK,pondís,1164
16372f1aaf14c3,9842,1,1,17,https://d3uxfe7dw0hhy7.cloudfront.net/annie-helms/span_perception_stimuli/F1_dur1,393,555,OK,pondís,1703
16372f1aca5903,947a,1,1,19,https://d3uxfe7dw0hhy7.cloudfront.net/annie-helms/span_perception_stimuli/F2_dur4,406,540,OK,pondís,6497
16372f1aca5903,947a,1,1,20,https://d3uxfe7dw0hhy7.cloudfront.net/annie-helms/span_perception_stimuli/F6_dur1,387,30,OK,pondís,753
16372f1aaf14c3,9842,1,1,18,https://d3uxfe7dw0hhy7.cloudfront.net/annie-helms/span_perception_stimuli/F5_st1,400,540,OK,pondís,3145
16372f1aca5903,947a,1,1,21,https://d3uxfe7dw0hhy7.cloudfront.net/annie-helms/span_perception_stimuli/F5_dur5,410,540,OK,pondís,703
16372f1aca5903,947a,1,1,22,https://d3uxfe7dw0hhy7.cloudfront.net/annie-helms/span_perception_stimuli/F1_st2,398,545,OK,pondís,690
16372f1aaf14c3,9842,1,1,19,https://d3uxfe7dw0hhy7.cloudfront.net/annie-helms/span_perception_stimuli/st4_dur2,404,550,OK,pondis,3111
16372f1aca5903,947a,1,1,23,https://d3uxfe7dw0hhy7.cloudfront.net/annie-helms/span_perception_stimuli/st3_dur2,404,660,OK,pondís,607
16372f1aaf14c3,9842,1,1,20,https://d3uxfe7dw0hhy7.cloudfront.net/annie-helms/span_perception_stimuli/F6_dur3,396,555,OK,pondís,1231
16372f1f93325b,9e20,1,1,0,https://d3uxfe7dw0hhy7.cloudfront.net/annie-helms/span_perception_stimuli/st6_dur4,413,680,unallowed_response,pondis,13871
16372f1aca5903,947a,1,1,24,https://d3uxfe7dw0hhy7.cloudfront.net/annie-helms/span_perception_stimuli/st3_dur1,400,585,OK,pondís,2657
16372f1aaf14c3,9842,1,1,21,https://d3uxfe7dw0hhy7.cloudfront.net/annie-helms/span_perception_stimuli/F2_dur3,402,555,OK,pondís,1833
16372f1aca5903,947a,1,1,25,https://d3uxfe7dw0hhy7.cloudfront.net/annie-helms/span_perception_stimuli/st2_dur1,400,530,OK,pondís,667
16372f1f93325b,9e20,1,1,1,https://d3uxfe7dw0hhy7.cloudfront.net/annie-helms/span_perception_stimuli/st1_dur5,418,315,OK,pondís,5296
16372f1aaf14c3,9842,1,1,22,https://d3uxfe7dw0hhy7.cloudfront.net/annie-helms/span_perception_stimuli/st4_dur1,400,55,OK,pondís,2725
16372f1aca5903,947a,1,1,26,https://d3uxfe7dw0hhy7.cloudfront.net/annie-helms/span_perception_stimuli/st1_dur2,404,580,OK,pondís,508
16372f1aca5903,947a,1,1,27,https://d3uxfe7dw0hhy7.cloudfront.net/annie-helms/span_perception_stimuli/F5_dur4,405,530,OK,pondís,340
16372f1aaf14c3,9842,1,1,23,https://d3uxfe7dw0hhy7.cloudfront.net/annie-helms/span_perception_stimuli/st6_dur1,400,555,OK,pondís,2683
16372f1aaf14c3,9842,1,1,24,https://d3uxfe7dw0hhy7.cloudfront.net/annie-helms/span_perception_stimuli/F1_dur5,410,550,OK,pondís,2381
16372f1aca5903,947a,1,1,28,https://d3uxfe7dw0hhy7.cloudfront.net/annie-helms/span_perception_stimuli/st4_dur6,414,50,OK,pondís,8688
16372f1aaf14c3,9842,1,1,25,https://d3uxfe7dw0hhy7.cloudfront.net/annie-helms/span_perception_stimuli/F4_st5,399,710,OK,pondís,2430
16372f1aca5903,947a,1,1,29,https://d3uxfe7dw0hhy7.cloudfront.net/annie-helms/span_perception_stimuli/F6_dur4,400,550,OK,pondís,606
16372f1f93325b,9e20,1,1,2,https://d3uxfe7dw0hhy7.cloudfront.net/annie-helms/span_perception_stimuli/F6_st3,393,285,OK,pondís,14432
16372f1aaf14c3,9842,1,1,26,https://d3uxfe7dw0hhy7.cloudfront.net/annie-helms/span_perception_stimuli/F4_dur5,411,560,OK,pondís,1389
16372f1aca5903,947a,1,1,30,https://d3uxfe7dw0hhy7.cloudfront.net/annie-helms/span_perception_stimuli/F3_dur5,408,530,OK,pondís,363
16372f1aca5903,947a,1,1,31,https://d3uxfe7dw0hhy7.cloudfront.net/annie-helms/span_perception_stimuli/F5_st3,400,575,OK,pondís,305
16372f1aaf14c3,9842,1,1,27,https://d3uxfe7dw0hhy7.cloudfront.net/annie-helms/span_perception_stimuli/F3_st4,398,550,OK,pondís,1722
16372f1f93325b,9e20,1,1,3,https://d3uxfe7dw0hhy7.cloudfront.net/annie-helms/span_perception_stimuli/F2_st2,398,295,OK,pondis,5041
16372f1aca5903,947a,1,1,32,https://d3uxfe7dw0hhy7.cloudfront.net/annie-helms/span_perception_stimuli/st3_dur3,409,540,OK,pondís,371
16372f1aaf14c3,9842,1,1,28,https://d3uxfe7dw0hhy7.cloudfront.net/annie-helms/span_perception_stimuli/F6_st1,392,595,OK,pondís,1902
16372f1aca5903,947a,1,1,33,https://d3uxfe7dw0hhy7.cloudfront.net/annie-helms/span_perception_stimuli/F1_dur3,402,560,OK,pondís,844
16372f1aca5903,947a,1,1,34,https://d3uxfe7dw0hhy7.cloudfront.net/annie-helms/span_perception_stimuli/F1_st5,398,530,OK,pondís,861
16372f1aaf14c3,9842,1,1,29,https://d3uxfe7dw0hhy7.cloudfront.net/annie-helms/span_perception_stimuli/F2_dur4,406,50,OK,pondís,3057
16372f1aca5903,947a,1,1,35,https://d3uxfe7dw0hhy7.cloudfront.net/annie-helms/span_perception_stimuli/F2_dur1,393,25,OK,pondís,921
16372f1aaf14c3,9842,1,1,30,https://d3uxfe7dw0hhy7.cloudfront.net/annie-helms/span_perception_stimuli/F1_dur6,407,550,OK,pondís,2112
16372f1aca5903,947a,1,1,36,https://d3uxfe7dw0hhy7.cloudfront.net/annie-helms/span_perception_stimuli/st5_dur3,409,535,OK,pondís,626
16372f1aca5903,947a,1,1,37,https://d3uxfe7dw0hhy7.cloudfront.net/annie-helms/span_perception_stimuli/F2_st5,398,530,OK,pondís,543
16372f1aaf14c3,9842,1,1,31,https://d3uxfe7dw0hhy7.cloudfront.net/annie-helms/span_perception_stimuli/F5_st2,400,550,OK,pondís,1427
16372f1f93325b,9e20,1,1,4,https://d3uxfe7dw0hhy7.cloudfront.net/annie-helms/span_perception_stimuli/F2_dur5,411,300,OK,pondis,13164
16372f1aca5903,947a,1,1,38,https://d3uxfe7dw0hhy7.cloudfront.net/annie-helms/span_perception_stimuli/F2_st4,398,540,OK,pondís,587
16372f1aaf14c3,9842,1,1,32,https://d3uxfe7dw0hhy7.cloudfront.net/annie-helms/span_perception_stimuli/st1_dur1,400,560,OK,pondis,1884
16372f1aca5903,947a,1,1,39,https://d3uxfe7dw0hhy7.cloudfront.net/annie-helms/span_perception_stimuli/st1_dur1,400,25,OK,pondís,840
16372f1f93325b,9e20,1,1,5,https://d3uxfe7dw0hhy7.cloudfront.net/annie-helms/span_perception_stimuli/F5_st6,400,315,OK,pondís,3352
16372f1aaf14c3,9842,1,1,33,https://d3uxfe7dw0hhy7.cloudfront.net/annie-helms/span_perception_stimuli/F3_dur1,391,45,OK,pondis,1374
16372f1aca5903,947a,1,1,40,https://d3uxfe7dw0hhy7.cloudfront.net/annie-helms/span_perception_stimuli/F3_st1,398,530,OK,pondís,863
16372f1aca5903,947a,1,1,41,https://d3uxfe7dw0hhy7.cloudfront.net/annie-helms/span_perception_stimuli/st4_dur2,404,25,OK,pondís,1089
16372f1f93325b,9e20,1,1,6,https://d3uxfe7dw0hhy7.cloudfront.net/annie-helms/span_perception_stimuli/F1_dur2,397,320,OK,pondís,2582
16372f1aaf14c3,9842,1,1,34,https://d3uxfe7dw0hhy7.cloudfront.net/annie-helms/span_perception_stimuli/F6_st4,393,550,OK,pondis,1788
16372f1aca5903,947a,1,1,42,https://d3uxfe7dw0hhy7.cloudfront.net/annie-helms/span_perception_stimuli/st5_dur5,418,530,early_response,pondís,1120
16372f1f93325b,9e20,1,1,7,https://d3uxfe7dw0hhy7.cloudfront.net/annie-helms/span_perception_stimuli/F6_st2,392,25,OK,pondís,1852
16372f1aaf14c3,9842,1,1,35,https://d3uxfe7dw0hhy7.cloudfront.net/annie-helms/span_perception_stimuli/F3_dur5,408,40,OK,pondís,1564
16372f1aaf14c3,9842,1,1,36,https://d3uxfe7dw0hhy7.cloudfront.net/annie-helms/span_perception_stimuli/F2_st6,398,135,OK,pondís,1417
16372f1f93325b,9e20,1,1,8,https://d3uxfe7dw0hhy7.cloudfront.net/annie-helms/span_perception_stimuli/F4_st1,399,25,OK,pondís,2259
16372f1f93325b,9e20,1,1,9,https://d3uxfe7dw0hhy7.cloudfront.net/annie-helms/span_perception_stimuli/st2_dur5,418,45,OK,pondís,1479
16372f1aaf14c3,9842,1,1,37,https://d3uxfe7dw0hhy7.cloudfront.net/annie-helms/span_perception_stimuli/st2_dur3,408,550,OK,pondís,1248
16372f1aca5903,947a,1,1,43,https://d3uxfe7dw0hhy7.cloudfront.net/annie-helms/span_perception_stimuli/F4_dur1,393,25,OK,pondís,8056
16372f1f93325b,9e20,1,1,10,https://d3uxfe7dw0hhy7.cloudfront.net/annie-helms/span_perception_stimuli/st5_dur3,409,25,OK,pondis,2037
16372f1aaf14c3,9842,1,1,38,https://d3uxfe7dw0hhy7.cloudfront.net/annie-helms/span_perception_stimuli/st6_dur2,404,545,OK,pondis,1282
16372f1aca5903,947a,1,1,44,https://d3uxfe7dw0hhy7.cloudfront.net/annie-helms/span_perception_stimuli/F4_dur4,406,25,OK,pondís,960
16372f1f93325b,9e20,1,1,11,https://d3uxfe7dw0hhy7.cloudfront.net/annie-helms/span_perception_stimuli/F3_dur2,395,45,OK,pondis,1883
16372f1aaf14c3,9842,1,1,39,https://d3uxfe7dw0hhy7.cloudfront.net/annie-helms/span_perception_stimuli/st5_dur6,414,575,OK,pondís,1561
16372f1aca5903,947a,1,1,45,https://d3uxfe7dw0hhy7.cloudfront.net/annie-helms/span_perception_stimuli/F2_dur6,407,535,OK,pondís,2396
16372f1f93325b,9e20,1,1,12,https://d3uxfe7dw0hhy7.cloudfront.net/annie-helms/span_perception_stimuli/F4_dur6,408,275,OK,pondís,1784
16372f25350adc,e9d2,1,1,0,https://d3uxfe7dw0hhy7.cloudfront.net/annie-helms/span_perception_stimuli/st5_dur2,404,125,OK,pondís,4191
16372f1aaf14c3,9842,1,1,40,https://d3uxfe7dw0hhy7.cloudfront.net/annie-helms/span_perception_stimuli/st1_dur6,415,570,OK,pondís,1998
16372f1aca5903,947a,1,1,46,https://d3uxfe7dw0hhy7.cloudfront.net/annie-helms/span_perception_stimuli/F4_st2,399,500,OK,pondís,628
16372f1f93325b,9e20,1,1,13,https://d3uxfe7dw0hhy7.cloudfront.net/annie-helms/span_perception_stimuli/F5_dur4,405,25,OK,pondís,1248
16372f1aca5903,947a,1,1,47,https://d3uxfe7dw0hhy7.cloudfront.net/annie-helms/span_perception_stimuli/st6_dur1,400,25,OK,pondís,564
16372f1aaf14c3,9842,1,1,41,https://d3uxfe7dw0hhy7.cloudfront.net/annie-helms/span_perception_stimuli/F5_st6,400,45,OK,pondis,1199
16372f25350adc,e9d2,1,1,1,https://d3uxfe7dw0hhy7.cloudfront.net/annie-helms/span_perception_stimuli/F6_dur2,391,575,OK,pondís,1599
16372f1aca5903,947a,1,1,48,https://d3uxfe7dw0hhy7.cloudfront.net/annie-helms/span_perception_stimuli/st4_dur3,409,35,OK,pondís,399
16372f1f93325b,9e20,1,1,14,https://d3uxfe7dw0hhy7.cloudfront.net/annie-helms/span_perception_stimuli/F5_dur3,401,25,OK,pondís,1399
16372f1aca5903,947a,1,1,49,https://d3uxfe7dw0hhy7.cloudfront.net/annie-helms/span_perception_stimuli/F6_st1,392,30,OK,pondís,386
16372f1aaf14c3,9842,1,1,42,https://d3uxfe7dw0hhy7.cloudfront.net/annie-helms/span_perception_stimuli/F3_st2,398,70,OK,pondis,2028
16372f1f93325b,9e20,1,1,15,https://d3uxfe7dw0hhy7.cloudfront.net/annie-helms/span_perception_stimuli/F6_dur6,409,60,OK,pondís,1380
16372f25350adc,e9d2,1,1,2,https://d3uxfe7dw0hhy7.cloudfront.net/annie-helms/span_perception_stimuli/F1_dur4,406,610,OK,pondís,2199
16372f1aca5903,947a,1,1,50,https://d3uxfe7dw0hhy7.cloudfront.net/annie-helms/span_perception_stimuli/F2_dur5,411,40,OK,pondís,283
16372f1aaf14c3,9842,1,1,43,https://d3uxfe7dw0hhy7.cloudfront.net/annie-helms/span_perception_stimuli/F1_dur4,406,40,OK,pondis,1270
16372f25350adc,e9d2,1,1,3,https://d3uxfe7dw0hhy7.cloudfront.net/annie-helms/span_perception_stimuli/F5_dur2,397,70,OK,pondís,955
16372f1aca5903,947a,1,1,51,https://d3uxfe7dw0hhy7.cloudfront.net/annie-helms/span_perception_stimuli/F5_dur6,407,525,OK,pondís,138
16372f1f93325b,9e20,1,1,16,https://d3uxfe7dw0hhy7.cloudfront.net/annie-helms/span_perception_stimuli/F3_dur3,400,345,OK,pondís,1527
16372f1aaf14c3,9842,1,1,44,https://d3uxfe7dw0hhy7.cloudfront.net/annie-helms/span_perception_stimuli/st5_dur2,404,45,OK,pondis,1634
16372f1aca5903,947a,1,1,52,https://d3uxfe7dw0hhy7.cloudfront.net/annie-helms/span_perception_stimuli/st4_dur5,418,30,OK,pondís,764
16372f25350adc,e9d2,1,1,4,https://d3uxfe7dw0hhy7.cloudfront.net/annie-helms/span_perception_stimuli/st1_dur6,415,65,OK,pondís,1012
16372f1aca5903,947a,1,1,53,https://d3uxfe7dw0hhy7.cloudfront.net/annie-helms/span_perception_stimuli/F5_dur1,392,25,OK,pondís,523
16372f1aaf14c3,9842,1,1,45,https://d3uxfe7dw0hhy7.cloudfront.net/annie-helms/span_perception_stimuli/F6_st5,392,70,OK,pondis,1411
16372f1f93325b,9e20,1,1,17,https://d3uxfe7dw0hhy7.cloudfront.net/annie-helms/span_perception_stimuli/st5_dur6,414,15,OK,pondis,2565
16372f25350adc,e9d2,1,1,5,https://d3uxfe7dw0hhy7.cloudfront.net/annie-helms/span_perception_stimuli/F3_st3,398,540,OK,pondís,759
16372f1aca5903,947a,1,1,54,https://d3uxfe7dw0hhy7.cloudfront.net/annie-helms/span_perception_stimuli/F3_dur3,400,55,OK,pondís,356
16372f25350adc,e9d2,1,1,6,https://d3uxfe7dw0hhy7.cloudfront.net/annie-helms/span_perception_stimuli/F3_dur4,404,80,OK,pondís,747
16372f1aaf14c3,9842,1,1,46,https://d3uxfe7dw0hhy7.cloudfront.net/annie-helms/span_perception_stimuli/F1_dur2,397,115,OK,pondis,1523
16372f1aca5903,947a,1,1,55,https://d3uxfe7dw0hhy7.cloudfront.net/annie-helms/span_perception_stimuli/st5_dur4,413,545,OK,pondís,382
16372f25350adc,e9d2,1,1,7,https://d3uxfe7dw0hhy7.cloudfront.net/annie-helms/span_perception_stimuli/st5_dur5,418,85,OK,pondís,861
16372f1f93325b,9e20,1,1,18,https://d3uxfe7dw0hhy7.cloudfront.net/annie-helms/span_perception_stimuli/F1_dur6,407,25,OK,pondís,3688
16372f1aca5903,947a,1,1,56,https://d3uxfe7dw0hhy7.cloudfront.net/annie-helms/span_perception_stimuli/st2_dur2,404,545,OK,pondís,110
16372f1aaf14c3,9842,1,1,47,https://d3uxfe7dw0hhy7.cloudfront.net/annie-helms/span_perception_stimuli/F6_dur5,405,630,OK,pondís,2040
16372f25350adc,e9d2,1,1,8,https://d3uxfe7dw0hhy7.cloudfront.net/annie-helms/span_perception_stimuli/st2_dur2,404,105,OK,pondís,763
16372f1aca5903,947a,1,1,57,https://d3uxfe7dw0hhy7.cloudfront.net/annie-helms/span_perception_stimuli/st2_dur6,414,525,OK,pondís,749
16372f25350adc,e9d2,1,1,9,https://d3uxfe7dw0hhy7.cloudfront.net/annie-helms/span_perception_stimuli/st3_dur3,409,75,OK,pondís,768
16372f1f93325b,9e20,1,1,19,https://d3uxfe7dw0hhy7.cloudfront.net/annie-helms/span_perception_stimuli/st2_dur1,400,20,OK,pondis,3165
16372f1aaf14c3,9842,1,1,48,https://d3uxfe7dw0hhy7.cloudfront.net/annie-helms/span_perception_stimuli/F1_st4,398,675,OK,pondís,1734
16372f25350adc,e9d2,1,1,10,https://d3uxfe7dw0hhy7.cloudfront.net/annie-helms/span_perception_stimuli/F6_dur3,396,75,OK,pondís,557
16372f1aca5903,947a,1,1,58,https://d3uxfe7dw0hhy7.cloudfront.net/annie-helms/span_perception_stimuli/F1_st6,398,595,OK,pondís,510
16372f1f93325b,9e20,1,1,20,https://d3uxfe7dw0hhy7.cloudfront.net/annie-helms/span_perception_stimuli/F6_st6,393,255,OK,pondís,1704
16372f1aaf14c3,9842,1,1,49,https://d3uxfe7dw0hhy7.cloudfront.net/annie-helms/span_perception_stimuli/F3_dur2,395,45,OK,pondís,1111
16372f25350adc,e9d2,1,1,11,https://d3uxfe7dw0hhy7.cloudfront.net/annie-helms/span_perception_stimuli/F4_st5,399,70,OK,pondís,566
16372f1aca5903,947a,1,1,59,https://d3uxfe7dw0hhy7.cloudfront.net/annie-helms/span_perception_stimuli/F1_st3,398,530,OK,pondís,622
16372f25350adc,e9d2,1,1,12,https://d3uxfe7dw0hhy7.cloudfront.net/annie-helms/span_perception_stimuli/F4_dur3,402,80,OK,pondís,627
16372f1aca5903,947a,1,1,60,https://d3uxfe7dw0hhy7.cloudfront.net/annie-helms/span_perception_stimuli/F2_dur3,402,30,OK,pondís,222
16372f1f93325b,9e20,1,1,21,https://d3uxfe7dw0hhy7.cloudfront.net/annie-helms/span_perception_stimuli/F5_dur1,392,30,OK,pondís,1580
16372f1aaf14c3,9842,1,1,50,https://d3uxfe7dw0hhy7.cloudfront.net/annie-helms/span_perception_stimuli/st3_dur1,400,140,OK,pondís,1523
16372f25350adc,e9d2,1,1,13,https://d3uxfe7dw0hhy7.cloudfront.net/annie-helms/span_perception_stimuli/st1_dur3,409,70,OK,pondís,539
16372f1aca5903,947a,1,1,61,https://d3uxfe7dw0hhy7.cloudfront.net/annie-helms/span_perception_stimuli/F4_dur5,411,30,OK,pondís,412
16372f1aca5903,947a,1,1,62,https://d3uxfe7dw0hhy7.cloudfront.net/annie-helms/span_perception_stimuli/F4_dur6,408,45,OK,pondís,295
16372f25350adc,e9d2,1,1,14,https://d3uxfe7dw0hhy7.cloudfront.net/annie-helms/span_perception_stimuli/st3_dur4,413,130,OK,pondís,452
16372f1f93325b,9e20,1,1,22,https://d3uxfe7dw0hhy7.cloudfront.net/annie-helms/span_perception_stimuli/st6_dur2,404,15,OK,pondís,2150
16372f1aaf14c3,9842,1,1,51,https://d3uxfe7dw0hhy7.cloudfront.net/annie-helms/span_perception_stimuli/F3_st1,398,120,OK,pondis,3206
16372f1aca5903,947a,1,1,63,https://d3uxfe7dw0hhy7.cloudfront.net/annie-helms/span_perception_stimuli/F4_st1,399,30,OK,pondís,333
16372f25350adc,e9d2,1,1,15,https://d3uxfe7dw0hhy7.cloudfront.net/annie-helms/span_perception_stimuli/st4_dur1,400,55,OK,pondís,433
16372f1aca5903,947a,1,1,64,https://d3uxfe7dw0hhy7.cloudfront.net/annie-helms/span_perception_stimuli/F3_st5,398,30,OK,pondís,316
16372f25350adc,e9d2,1,1,16,https://d3uxfe7dw0hhy7.cloudfront.net/annie-helms/span_perception_stimuli/F1_dur5,410,55,OK,pondís,444
16372f1aaf14c3,9842,1,1,52,https://d3uxfe7dw0hhy7.cloudfront.net/annie-helms/span_perception_stimuli/st2_dur1,400,45,OK,pondis,1182
16372f1f93325b,9e20,1,1,23,https://d3uxfe7dw0hhy7.cloudfront.net/annie-helms/span_perception_stimuli/F1_dur5,410,35,OK,pondís,3354
16372f1aca5903,947a,1,1,65,https://d3uxfe7dw0hhy7.cloudfront.net/annie-helms/span_perception_stimuli/st1_dur6,415,45,OK,pondís,888
16372f25350adc,e9d2,1,1,17,https://d3uxfe7dw0hhy7.cloudfront.net/annie-helms/span_perception_stimuli/st2_dur1,400,60,OK,pondís,639
16372f1aaf14c3,9842,1,1,53,https://d3uxfe7dw0hhy7.cloudfront.net/annie-helms/span_perception_stimuli/F2_dur6,407,55,OK,pondis,933
16372f1aca5903,947a,1,1,66,https://d3uxfe7dw0hhy7.cloudfront.net/annie-helms/span_perception_stimuli/F3_st4,398,25,OK,pondís,472
16372f25350adc,e9d2,1,1,18,https://d3uxfe7dw0hhy7.cloudfront.net/annie-helms/span_perception_stimuli/F5_st6,400,50,OK,pondís,627
16372f1aaf14c3,9842,1,1,54,https://d3uxfe7dw0hhy7.cloudfront.net/annie-helms/span_perception_stimuli/F6_dur2,391,45,OK,pondís,1070
16372f1f93325b,9e20,1,1,24,https://d3uxfe7dw0hhy7.cloudfront.net/annie-helms/span_perception_stimuli/F2_st4,398,45,OK,pondis,1765
16372f1aca5903,947a,1,1,67,https://d3uxfe7dw0hhy7.cloudfront.net/annie-helms/span_perception_stimuli/F1_st4,398,105,OK,pondís,388
16372f25350adc,e9d2,1,1,19,https://d3uxfe7dw0hhy7.cloudfront.net/annie-helms/span_perception_stimuli/F4_st4,399,75,OK,pondís,566
16372f1f93325b,9e20,1,1,25,https://d3uxfe7dw0hhy7.cloudfront.net/annie-helms/span_perception_stimuli/st1_dur6,415,20,OK,pondis,1831
16372f25350adc,e9d2,1,1,20,https://d3uxfe7dw0hhy7.cloudfront.net/annie-helms/span_perception_stimuli/F4_dur4,406,95,OK,pondís,538
16372f1aca5903,947a,1,1,68,https://d3uxfe7dw0hhy7.cloudfront.net/annie-helms/span_perception_stimuli/st3_dur6,414,530,OK,pondís,532
16372f1aaf14c3,9842,1,1,55,https://d3uxfe7dw0hhy7.cloudfront.net/annie-helms/span_perception_stimuli/st6_dur5,418,585,OK,pondís,1564
16372f25350adc,e9d2,1,1,21,https://d3uxfe7dw0hhy7.cloudfront.net/annie-helms/span_perception_stimuli/F4_dur5,411,85,OK,pondís,441
16372f1f93325b,9e20,1,1,26,https://d3uxfe7dw0hhy7.cloudfront.net/annie-helms/span_perception_stimuli/F3_st6,398,55,OK,pondis,1552
16372f1aca5903,947a,1,1,69,https://d3uxfe7dw0hhy7.cloudfront.net/annie-helms/span_perception_stimuli/st6_dur6,414,550,OK,pondís,494
16372f1aaf14c3,9842,1,1,56,https://d3uxfe7dw0hhy7.cloudfront.net/annie-helms/span_perception_stimuli/st1_dur2,404,55,OK,pondis,1538
16372f25350adc,e9d2,1,1,22,https://d3uxfe7dw0hhy7.cloudfront.net/annie-helms/span_perception_stimuli/st5_dur6,414,55,OK,pondís,575
16372f1aca5903,947a,1,1,70,https://d3uxfe7dw0hhy7.cloudfront.net/annie-helms/span_perception_stimuli/F1_dur1,393,40,OK,pondís,629
16372f1aaf14c3,9842,1,1,57,https://d3uxfe7dw0hhy7.cloudfront.net/annie-helms/span_perception_stimuli/st2_dur6,414,60,OK,pondis,904
16372f25350adc,e9d2,1,1,23,https://d3uxfe7dw0hhy7.cloudfront.net/annie-helms/span_perception_stimuli/st2_dur6,414,50,OK,pondís,588
16372f1f93325b,9e20,1,1,27,https://d3uxfe7dw0hhy7.cloudfront.net/annie-helms/span_perception_stimuli/F3_st2,398,15,OK,pondís,2789
16372f1aca5903,947a,1,1,71,https://d3uxfe7dw0hhy7.cloudfront.net/annie-helms/span_perception_stimuli/st2_dur4,413,235,OK,pondís,343
16372f25350adc,e9d2,1,1,24,https://d3uxfe7dw0hhy7.cloudfront.net/annie-helms/span_perception_stimuli/st6_dur6,414,75,OK,pondís,494
16372f1aaf14c3,9842,1,1,58,https://d3uxfe7dw0hhy7.cloudfront.net/annie-helms/span_perception_stimuli/F5_dur4,405,50,OK,pondis,1972
16372f1f93325b,9e20,1,1,28,https://d3uxfe7dw0hhy7.cloudfront.net/annie-helms/span_perception_stimuli/F5_dur5,410,35,OK,pondis,1580
16372f1aca5903,947a,1,1,72,https://d3uxfe7dw0hhy7.cloudfront.net/annie-helms/span_perception_stimuli/F4_st6,399,560,OK,pondís,433
16372f25350adc,e9d2,1,1,25,https://d3uxfe7dw0hhy7.cloudfront.net/annie-helms/span_perception_stimuli/st1_dur4,413,720,OK,pondís,643
16372f1aca5903,947a,1,1,73,https://d3uxfe7dw0hhy7.cloudfront.net/annie-helms/span_perception_stimuli/F6_st3,393,45,OK,pondís,373
16372f1f93325b,9e20,1,1,29,https://d3uxfe7dw0hhy7.cloudfront.net/annie-helms/span_perception_stimuli/st1_dur2,404,10,OK,pondis,2003
16372f29602b5b,9a85,1,1,0,https://d3uxfe7dw0hhy7.cloudfront.net/annie-helms/span_perception_stimuli/F6_dur6,409,40,OK,pondís,4574
16372f25350adc,e9d2,1,1,26,https://d3uxfe7dw0hhy7.cloudfront.net/annie-helms/span_perception_stimuli/st6_dur4,413,65,OK,pondís,553
16372f1aca5903,947a,1,1,74,https://d3uxfe7dw0hhy7.cloudfront.net/annie-helms/span_perception_stimuli/F1_dur6,407,30,OK,pondís,386
16372f1aaf14c3,9842,1,1,59,https://d3uxfe7dw0hhy7.cloudfront.net/annie-helms/span_perception_stimuli/F5_st4,400,610,OK,pondis,2043
16372f1aca5903,947a,1,1,75,https://d3uxfe7dw0hhy7.cloudfront.net/annie-helms/span_perception_stimuli/F5_st2,400,20,OK,pondís,304
16372f25350adc,e9d2,1,1,27,https://d3uxfe7dw0hhy7.cloudfront.net/annie-helms/span_perception_stimuli/F1_dur3,402,70,OK,pondís,593
16372f1f93325b,9e20,1,1,30,https://d3uxfe7dw0hhy7.cloudfront.net/annie-helms/span_perception_stimuli/st4_dur3,409,60,OK,pondís,1484
16372f1aaf14c3,9842,1,1,60,https://d3uxfe7dw0hhy7.cloudfront.net/annie-helms/span_perception_stimuli/F1_dur3,402,35,OK,pondis,1192
16372f29602b5b,9a85,1,1,1,https://d3uxfe7dw0hhy7.cloudfront.net/annie-helms/span_perception_stimuli/F3_st5,398,10,OK,pondís,2011
16372f1aca5903,947a,1,1,76,https://d3uxfe7dw0hhy7.cloudfront.net/annie-helms/span_perception_stimuli/F1_dur4,406,45,OK,pondís,243
16372f25350adc,e9d2,1,1,28,https://d3uxfe7dw0hhy7.cloudfront.net/annie-helms/span_perception_stimuli/F6_st2,392,50,OK,pondís,631
16372f1f93325b,9e20,1,1,31,https://d3uxfe7dw0hhy7.cloudfront.net/annie-helms/span_perception_stimuli/st1_dur3,409,15,OK,pondis,1272
16372f1aca5903,947a,1,1,77,https://d3uxfe7dw0hhy7.cloudfront.net/annie-helms/span_perception_stimuli/st2_dur3,408,45,OK,pondís,377
16372f1aaf14c3,9842,1,1,61,https://d3uxfe7dw0hhy7.cloudfront.net/annie-helms/span_perception_stimuli/st6_dur4,413,50,OK,pondís,1687
16372f25350adc,e9d2,1,1,29,https://d3uxfe7dw0hhy7.cloudfront.net/annie-helms/span_perception_stimuli/F2_st5,398,75,OK,pondís,592
16372f29602b5b,9a85,1,1,2,https://d3uxfe7dw0hhy7.cloudfront.net/annie-helms/span_perception_stimuli/F1_st2,398,10,OK,pondis,2194
16372f1aca5903,947a,1,1,78,https://d3uxfe7dw0hhy7.cloudfront.net/annie-helms/span_perception_stimuli/st6_dur4,413,45,OK,pondís,344
16372f1f93325b,9e20,1,1,32,https://d3uxfe7dw0hhy7.cloudfront.net/annie-helms/span_perception_stimuli/F3_dur1,391,110,OK,pondis,1283
16372f25350adc,e9d2,1,1,30,https://d3uxfe7dw0hhy7.cloudfront.net/annie-helms/span_perception_stimuli/st1_dur5,418,65,OK,pondís,455
16372f1aca5903,947a,1,1,79,https://d3uxfe7dw0hhy7.cloudfront.net/annie-helms/span_perception_stimuli/F5_st6,400,45,OK,pondís,478
16372f29602b5b,9a85,1,1,3,https://d3uxfe7dw0hhy7.cloudfront.net/annie-helms/span_perception_stimuli/st3_dur2,404,10,OK,pondís,1551
16372f1aaf14c3,9842,1,1,62,https://d3uxfe7dw0hhy7.cloudfront.net/annie-helms/span_perception_stimuli/F4_st3,399,560,OK,pondis,1586
16372f25350adc,e9d2,1,1,31,https://d3uxfe7dw0hhy7.cloudfront.net/annie-helms/span_perception_stimuli/st2_dur4,413,90,OK,pondís,538
16372f1aca5903,947a,1,1,80,https://d3uxfe7dw0hhy7.cloudfront.net/annie-helms/span_perception_stimuli/F1_dur5,410,30,OK,pondís,291
16372f1f93325b,9e20,1,1,33,https://d3uxfe7dw0hhy7.cloudfront.net/annie-helms/span_perception_stimuli/F2_dur3,402,25,OK,pondis,1688
16372f29602b5b,9a85,1,1,4,https://d3uxfe7dw0hhy7.cloudfront.net/annie-helms/span_perception_stimuli/F2_dur4,406,10,OK,pondís,806
16372f25350adc,e9d2,1,1,32,https://d3uxfe7dw0hhy7.cloudfront.net/annie-helms/span_perception_stimuli/F3_dur5,408,70,OK,pondís,476
16372f1aaf14c3,9842,1,1,63,https://d3uxfe7dw0hhy7.cloudfront.net/annie-helms/span_perception_stimuli/F2_st5,398,100,OK,pondís,1003
16372f1aca5903,947a,1,1,81,https://d3uxfe7dw0hhy7.cloudfront.net/annie-helms/span_perception_stimuli/F4_dur2,398,580,OK,pondís,118
16372f1f93325b,9e20,1,1,34,https://d3uxfe7dw0hhy7.cloudfront.net/annie-helms/span_perception_stimuli/F5_st2,400,20,OK,pondís,1415
16372f29602b5b,9a85,1,1,5,https://d3uxfe7dw0hhy7.cloudfront.net/annie-helms/span_perception_stimuli/st3_dur4,413,10,OK,pondís,1047
16372f25350adc,e9d2,1,1,33,https://d3uxfe7dw0hhy7.cloudfront.net/annie-helms/span_perception_stimuli/F1_st1,393,540,OK,pondís,697
16372f1aca5903,947a,1,1,82,https://d3uxfe7dw0hhy7.cloudfront.net/annie-helms/span_perception_stimuli/F3_st3,398,100,OK,pondís,759
16372f1aaf14c3,9842,1,1,64,https://d3uxfe7dw0hhy7.cloudfront.net/annie-helms/span_perception_stimuli/F1_st1,393,625,OK,pondis,1667
16372f29602b5b,9a85,1,1,6,https://d3uxfe7dw0hhy7.cloudfront.net/annie-helms/span_perception_stimuli/F5_st5,400,10,OK,pondís,476
16372f1f93325b,9e20,1,1,35,https://d3uxfe7dw0hhy7.cloudfront.net/annie-helms/span_perception_stimuli/F1_st3,398,25,OK,pondís,1121
16372f25350adc,e9d2,1,1,34,https://d3uxfe7dw0hhy7.cloudfront.net/annie-helms/span_perception_stimuli/F1_st6,398,80,OK,pondís,578
16372f1aca5903,947a,1,1,83,https://d3uxfe7dw0hhy7.cloudfront.net/annie-helms/span_perception_stimuli/st6_dur5,418,45,OK,pondís,568
16372f29602b5b,9a85,1,1,7,https://d3uxfe7dw0hhy7.cloudfront.net/annie-helms/span_perception_stimuli/st1_dur6,415,10,OK,pondís,479
16372f1aaf14c3,9842,1,1,65,https://d3uxfe7dw0hhy7.cloudfront.net/annie-helms/span_perception_stimuli/F4_st4,399,45,OK,pondís,1479
16372f25350adc,e9d2,1,1,35,https://d3uxfe7dw0hhy7.cloudfront.net/annie-helms/span_perception_stimuli/st6_dur1,400,75,OK,pondís,553
16372f1aca5903,947a,1,1,84,https://d3uxfe7dw0hhy7.cloudfront.net/annie-helms/span_perception_stimuli/F6_dur5,405,45,OK,pondís,559
16372f29602b5b,9a85,1,1,8,https://d3uxfe7dw0hhy7.cloudfront.net/annie-helms/span_perception_stimuli/F2_dur6,407,10,OK,pondís,534
16372f1f93325b,9e20,1,1,36,https://d3uxfe7dw0hhy7.cloudfront.net/annie-helms/span_perception_stimuli/st1_dur1,400,30,OK,pondis,2125
16372f25350adc,e9d2,1,1,36,https://d3uxfe7dw0hhy7.cloudfront.net/annie-helms/span_perception_stimuli/F2_dur4,406,65,OK,pondís,600
16372f1aca5903,947a,1,1,85,https://d3uxfe7dw0hhy7.cloudfront.net/annie-helms/span_perception_stimuli/F6_dur2,391,45,OK,pondís,530
16372f29602b5b,9a85,1,1,9,https://d3uxfe7dw0hhy7.cloudfront.net/annie-helms/span_perception_stimuli/st5_dur4,413,10,OK,pondís,544
16372f1aaf14c3,9842,1,1,66,https://d3uxfe7dw0hhy7.cloudfront.net/annie-helms/span_perception_stimuli/F4_st2,399,95,OK,pondis,1777
16372f1f93325b,9e20,1,1,37,https://d3uxfe7dw0hhy7.cloudfront.net/annie-helms/span_perception_stimuli/F6_dur5,405,15,OK,pondís,1639
16372f25350adc,e9d2,1,1,37,https://d3uxfe7dw0hhy7.cloudfront.net/annie-helms/span_perception_stimuli/st4_dur3,409,55,OK,pondís,581
16372f1aca5903,947a,1,1,86,https://d3uxfe7dw0hhy7.cloudfront.net/annie-helms/span_perception_stimuli/F6_st6,393,40,OK,pondís,348
16372f29602b5b,9a85,1,1,10,https://d3uxfe7dw0hhy7.cloudfront.net/annie-helms/span_perception_stimuli/st6_dur5,418,10,OK,pondís,993
16372f1aaf14c3,9842,1,1,67,https://d3uxfe7dw0hhy7.cloudfront.net/annie-helms/span_perception_stimuli/F2_dur5,411,50,OK,pondís,797
16372f25350adc,e9d2,1,1,38,https://d3uxfe7dw0hhy7.cloudfront.net/annie-helms/span_perception_stimuli/F1_dur6,407,60,OK,pondís,572
16372f1aca5903,947a,1,1,87,https://d3uxfe7dw0hhy7.cloudfront.net/annie-helms/span_perception_stimuli/st5_dur1,400,535,OK,pondís,503
16372f1f93325b,9e20,1,1,38,https://d3uxfe7dw0hhy7.cloudfront.net/annie-helms/span_perception_stimuli/F1_dur3,402,10,OK,pondis,2190
16372f1aaf14c3,9842,1,1,68,https://d3uxfe7dw0hhy7.cloudfront.net/annie-helms/span_perception_stimuli/F4_st6,399,60,OK,pondis,1458
16372f25350adc,e9d2,1,1,39,https://d3uxfe7dw0hhy7.cloudfront.net/annie-helms/span_perception_stimuli/st2_dur3,408,65,OK,pondís,529
16372f1aca5903,947a,1,1,88,https://d3uxfe7dw0hhy7.cloudfront.net/annie-helms/span_perception_stimuli/F6_st4,393,25,OK,pondís,970
16372f29602b5b,9a85,1,1,11,https://d3uxfe7dw0hhy7.cloudfront.net/annie-helms/span_perception_stimuli/F3_dur3,400,10,OK,pondís,3303
16372f25350adc,e9d2,1,1,40,https://d3uxfe7dw0hhy7.cloudfront.net/annie-helms/span_perception_stimuli/st6_dur5,418,60,OK,pondís,500
16372f1aaf14c3,9842,1,1,69,https://d3uxfe7dw0hhy7.cloudfront.net/annie-helms/span_perception_stimuli/st6_dur3,409,80,OK,pondís,1492
16372f1aca5903,947a,1,1,89,https://d3uxfe7dw0hhy7.cloudfront.net/annie-helms/span_perception_stimuli/F4_dur3,402,25,OK,pondís,507
16372f1f93325b,9e20,1,1,39,https://d3uxfe7dw0hhy7.cloudfront.net/annie-helms/span_perception_stimuli/F3_dur6,405,320,OK,pondís,1584
16372f29602b5b,9a85,1,1,12,https://d3uxfe7dw0hhy7.cloudfront.net/annie-helms/span_perception_stimuli/st2_dur2,404,10,OK,pondís,586
16372f25350adc,e9d2,1,1,41,https://d3uxfe7dw0hhy7.cloudfront.net/annie-helms/span_perception_stimuli/F5_dur1,392,55,OK,pondís,468
16372f1aca5903,947a,1,1,90,https://d3uxfe7dw0hhy7.cloudfront.net/annie-helms/span_perception_stimuli/F4_st3,399,40,OK,pondís,551
16372f29602b5b,9a85,1,1,13,https://d3uxfe7dw0hhy7.cloudfront.net/annie-helms/span_perception_stimuli/F3_dur4,404,10,OK,pondís,426
16372f25350adc,e9d2,1,1,42,https://d3uxfe7dw0hhy7.cloudfront.net/annie-helms/span_perception_stimuli/F1_dur1,393,150,OK,pondís,486
16372f1aaf14c3,9842,1,1,70,https://d3uxfe7dw0hhy7.cloudfront.net/annie-helms/span_perception_stimuli/F6_dur4,400,65,OK,pondís,1843
16372f1f93325b,9e20,1,1,40,https://d3uxfe7dw0hhy7.cloudfront.net/annie-helms/span_perception_stimuli/F3_st1,398,15,OK,pondis,2295
16372f1aca5903,947a,1,1,91,https://d3uxfe7dw0hhy7.cloudfront.net/annie-helms/span_perception_stimuli/F5_st1,400,25,OK,pondís,377
16372f29602b5b,9a85,1,1,14,https://d3uxfe7dw0hhy7.cloudfront.net/annie-helms/span_perception_stimuli/st1_dur2,404,10,OK,pondís,426
16372f25350adc,e9d2,1,1,43,https://d3uxfe7dw0hhy7.cloudfront.net/annie-helms/span_perception_stimuli/F2_dur3,402,55,OK,pondís,488
16372f1aca5903,947a,1,1,92,https://d3uxfe7dw0hhy7.cloudfront.net/annie-helms/span_perception_stimuli/st1_dur5,418,45,OK,pondís,419
16372f29602b5b,9a85,1,1,15,https://d3uxfe7dw0hhy7.cloudfront.net/annie-helms/span_perception_stimuli/F6_st4,393,10,OK,pondís,579
16372f1aaf14c3,9842,1,1,71,https://d3uxfe7dw0hhy7.cloudfront.net/annie-helms/span_perception_stimuli/F1_st2,398,75,OK,pondis,2053
16372f1f93325b,9e20,1,1,41,https://d3uxfe7dw0hhy7.cloudfront.net/annie-helms/span_perception_stimuli/F5_dur6,407,60,OK,pondis,1406
16372f25350adc,e9d2,1,1,44,https://d3uxfe7dw0hhy7.cloudfront.net/annie-helms/span_perception_stimuli/F3_st5,398,160,OK,pondís,527
16372f1aca5903,947a,1,1,93,https://d3uxfe7dw0hhy7.cloudfront.net/annie-helms/span_perception_stimuli/F1_dur2,397,110,OK,pondís,472
16372f29602b5b,9a85,1,1,16,https://d3uxfe7dw0hhy7.cloudfront.net/annie-helms/span_perception_stimuli/F1_st6,398,10,OK,pondís,626
16372f1aaf14c3,9842,1,1,72,https://d3uxfe7dw0hhy7.cloudfront.net/annie-helms/span_perception_stimuli/st2_dur4,413,45,OK,pondis,778
16372f25350adc,e9d2,1,1,45,https://d3uxfe7dw0hhy7.cloudfront.net/annie-helms/span_perception_stimuli/F5_st4,400,60,OK,pondís,536
16372f1aca5903,947a,1,1,94,https://d3uxfe7dw0hhy7.cloudfront.net/annie-helms/span_perception_stimuli/F1_st1,393,45,OK,pondís,426
16372f1f93325b,9e20,1,1,42,https://d3uxfe7dw0hhy7.cloudfront.net/annie-helms/span_perception_stimuli/F1_st4,398,10,OK,pondis,1587
16372f29602b5b,9a85,1,1,17,https://d3uxfe7dw0hhy7.cloudfront.net/annie-helms/span_perception_stimuli/F2_dur5,411,10,OK,pondís,621
16372f25350adc,e9d2,1,1,46,https://d3uxfe7dw0hhy7.cloudfront.net/annie-helms/span_perception_stimuli/st3_dur1,400,55,OK,pondís,547
16372f1aaf14c3,9842,1,1,73,https://d3uxfe7dw0hhy7.cloudfront.net/annie-helms/span_perception_stimuli/F3_st3,398,55,OK,pondis,1071
16372f1aca5903,947a,1,1,95,https://d3uxfe7dw0hhy7.cloudfront.net/annie-helms/span_perception_stimuli/F5_st4,400,40,OK,pondís,295
16372f29602b5b,9a85,1,1,18,https://d3uxfe7dw0hhy7.cloudfront.net/annie-helms/span_perception_stimuli/F6_dur3,396,10,OK,pondís,400
16372f1f93325b,9e20,1,1,43,https://d3uxfe7dw0hhy7.cloudfront.net/annie-helms/span_perception_stimuli/st4_dur5,418,155,OK,pondís,1488
16372f1aca5903,947a,1,1,96,https://d3uxfe7dw0hhy7.cloudfront.net/annie-helms/span_perception_stimuli/st1_dur4,413,45,OK,pondís,257
16372f25350adc,e9d2,1,1,47,https://d3uxfe7dw0hhy7.cloudfront.net/annie-helms/span_perception_stimuli/F5_dur6,407,55,OK,pondís,494
16372f29602b5b,9a85,1,1,19,https://d3uxfe7dw0hhy7.cloudfront.net/annie-helms/span_perception_stimuli/F1_dur4,406,10,OK,pondís,438
16372f1aaf14c3,9842,1,1,74,https://d3uxfe7dw0hhy7.cloudfront.net/annie-helms/span_perception_stimuli/F1_st5,398,115,OK,pondis,1822
16372f1aca5903,947a,1,1,97,https://d3uxfe7dw0hhy7.cloudfront.net/annie-helms/span_perception_stimuli/F4_st5,399,20,OK,pondís,439
16372f25350adc,e9d2,1,1,48,https://d3uxfe7dw0hhy7.cloudfront.net/annie-helms/span_perception_stimuli/st5_dur4,413,75,OK,pondís,558
16372f29602b5b,9a85,1,1,20,https://d3uxfe7dw0hhy7.cloudfront.net/annie-helms/span_perception_stimuli/st4_dur1,400,10,OK,pondís,346
16372f1f93325b,9e20,1,1,44,https://d3uxfe7dw0hhy7.cloudfront.net/annie-helms/span_perception_stimuli/st5_dur2,404,10,OK,pondis,1644
16372f25350adc,e9d2,1,1,49,https://d3uxfe7dw0hhy7.cloudfront.net/annie-helms/span_perception_stimuli/F2_st2,398,60,OK,pondís,548
16372f1aaf14c3,9842,1,1,75,https://d3uxfe7dw0hhy7.cloudfront.net/annie-helms/span_perception_stimuli/F2_st2,398,45,OK,pondís,1456
16372f29602b5b,9a85,1,1,21,https://d3uxfe7dw0hhy7.cloudfront.net/annie-helms/span_perception_stimuli/st2_dur3,408,10,OK,pondís,365
16372f1aca5903,947a,1,1,98,https://d3uxfe7dw0hhy7.cloudfront.net/annie-helms/span_perception_stimuli/F6_dur6,409,25,OK,pondís,1276
16372f1f93325b,9e20,1,1,45,https://d3uxfe7dw0hhy7.cloudfront.net/annie-helms/span_perception_stimuli/F2_st5,398,15,OK,pondis,1367
16372f25350adc,e9d2,1,1,50,https://d3uxfe7dw0hhy7.cloudfront.net/annie-helms/span_perception_stimuli/F4_dur6,408,50,OK,pondís,466
16372f29602b5b,9a85,1,1,22,https://d3uxfe7dw0hhy7.cloudfront.net/annie-helms/span_perception_stimuli/F1_st1,393,10,OK,pondís,401
16372f1aaf14c3,9842,1,1,76,https://d3uxfe7dw0hhy7.cloudfront.net/annie-helms/span_perception_stimuli/st5_dur5,418,40,OK,pondís,876
16372f25350adc,e9d2,1,1,51,https://d3uxfe7dw0hhy7.cloudfront.net/annie-helms/span_perception_stimuli/F4_dur2,398,65,OK,pondís,425
16372f29602b5b,9a85,1,1,23,https://d3uxfe7dw0hhy7.cloudfront.net/annie-helms/span_perception_stimuli/F5_st3,400,10,OK,pondís,492
16372f1f93325b,9e20,1,1,46,https://d3uxfe7dw0hhy7.cloudfront.net/annie-helms/span_perception_stimuli/F4_dur3,402,15,OK,pondis,1575
16372f1aca5903,947a,1,1,99,https://d3uxfe7dw0hhy7.cloudfront.net/annie-helms/span_perception_stimuli/st4_dur4,413,535,early_response,pondís,1284
16372f1aca5903,947a,1,1,100,https://d3uxfe7dw0hhy7.cloudfront.net/annie-helms/span_perception_stimuli/st6_dur2,404,50,OK,pondís,253
16372f25350adc,e9d2,1,1,52,https://d3uxfe7dw0hhy7.cloudfront.net/annie-helms/span_perception_stimuli/F3_dur6,405,60,OK,pondís,342
16372f29602b5b,9a85,1,1,24,https://d3uxfe7dw0hhy7.cloudfront.net/annie-helms/span_perception_stimuli/F3_dur2,395,20,OK,pondís,263
16372f1aaf14c3,9842,1,1,77,https://d3uxfe7dw0hhy7.cloudfront.net/annie-helms/span_perception_stimuli/F2_st3,398,545,OK,pondís,1130
16372f25350adc,e9d2,1,1,53,https://d3uxfe7dw0hhy7.cloudfront.net/annie-helms/span_perception_stimuli/st4_dur5,418,65,OK,pondís,425
16372f29602b5b,9a85,1,1,25,https://d3uxfe7dw0hhy7.cloudfront.net/annie-helms/span_perception_stimuli/st4_dur5,418,10,OK,pondís,461
16372f1f93325b,9e20,1,1,47,https://d3uxfe7dw0hhy7.cloudfront.net/annie-helms/span_perception_stimuli/F2_dur4,406,20,OK,pondis,2159
16372f1aaf14c3,9842,1,1,78,https://d3uxfe7dw0hhy7.cloudfront.net/annie-helms/span_perception_stimuli/st3_dur4,413,80,OK,pondis,1217
16372f1aca5903,947a,1,1,101,https://d3uxfe7dw0hhy7.cloudfront.net/annie-helms/span_perception_stimuli/F3_dur4,404,25,OK,pondís,1685
16372f25350adc,e9d2,1,1,54,https://d3uxfe7dw0hhy7.cloudfront.net/annie-helms/span_perception_stimuli/F6_dur5,405,50,OK,pondís,405
16372f29602b5b,9a85,1,1,26,https://d3uxfe7dw0hhy7.cloudfront.net/annie-helms/span_perception_stimuli/F5_dur6,407,10,OK,pondís,529
16372f1aca5903,947a,1,1,102,https://d3uxfe7dw0hhy7.cloudfront.net/annie-helms/span_perception_stimuli/st5_dur6,414,40,OK,pondís,146
16372f1f93325b,9e20,1,1,48,https://d3uxfe7dw0hhy7.cloudfront.net/annie-helms/span_perception_stimuli/F2_st3,398,15,OK,pondís,1355
16372f1aaf14c3,9842,1,1,79,https://d3uxfe7dw0hhy7.cloudfront.net/annie-helms/span_perception_stimuli/F2_st1,398,60,OK,pondis,875
16372f25350adc,e9d2,1,1,55,https://d3uxfe7dw0hhy7.cloudfront.net/annie-helms/span_perception_stimuli/F6_dur1,387,80,OK,pondís,450
16372f29602b5b,9a85,1,1,27,https://d3uxfe7dw0hhy7.cloudfront.net/annie-helms/span_perception_stimuli/F5_dur1,392,10,OK,pondís,479
16372f1aca5903,947a,1,1,103,https://d3uxfe7dw0hhy7.cloudfront.net/annie-helms/span_perception_stimuli/F2_dur2,397,25,OK,pondís,805
16372f1aaf14c3,9842,1,1,80,https://d3uxfe7dw0hhy7.cloudfront.net/annie-helms/span_perception_stimuli/F3_dur3,400,40,OK,pondís,804
16372f25350adc,e9d2,1,1,56,https://d3uxfe7dw0hhy7.cloudfront.net/annie-helms/span_perception_stimuli/F2_st6,398,55,OK,pondís,513
16372f1f93325b,9e20,1,1,49,https://d3uxfe7dw0hhy7.cloudfront.net/annie-helms/span_perception_stimuli/F1_dur1,393,15,OK,pondís,1376
16372f29602b5b,9a85,1,1,28,https://d3uxfe7dw0hhy7.cloudfront.net/annie-helms/span_perception_stimuli/F3_st1,398,10,OK,pondís,613
16372f1aca5903,947a,1,1,104,https://d3uxfe7dw0hhy7.cloudfront.net/annie-helms/span_perception_stimuli/F2_st2,398,45,OK,pondís,271
16372f25350adc,e9d2,1,1,57,https://d3uxfe7dw0hhy7.cloudfront.net/annie-helms/span_perception_stimuli/F6_st5,392,55,OK,pondís,487
16372f1aca5903,947a,1,1,105,https://d3uxfe7dw0hhy7.cloudfront.net/annie-helms/span_perception_stimuli/F6_dur3,396,25,OK,pondís,616
16372f1aaf14c3,9842,1,1,81,https://d3uxfe7dw0hhy7.cloudfront.net/annie-helms/span_perception_stimuli/F3_dur6,405,30,OK,pondís,1741
16372f29602b5b,9a85,1,1,29,https://d3uxfe7dw0hhy7.cloudfront.net/annie-helms/span_perception_stimuli/F1_dur2,397,60,OK,pondís,1311
16372f1f93325b,9e20,1,1,50,https://d3uxfe7dw0hhy7.cloudfront.net/annie-helms/span_perception_stimuli/F2_st6,398,10,OK,pondís,1391
16372f25350adc,e9d2,1,1,58,https://d3uxfe7dw0hhy7.cloudfront.net/annie-helms/span_perception_stimuli/F3_dur1,391,55,OK,pondís,441
16372f1aca5903,947a,1,1,106,https://d3uxfe7dw0hhy7.cloudfront.net/annie-helms/span_perception_stimuli/F3_dur6,405,45,OK,pondís,661
16372f29602b5b,9a85,1,1,30,https://d3uxfe7dw0hhy7.cloudfront.net/annie-helms/span_perception_stimuli/st4_dur2,404,10,OK,pondis,804
16372f1f93325b,9e20,1,1,51,https://d3uxfe7dw0hhy7.cloudfront.net/annie-helms/span_perception_stimuli/F5_st4,400,10,OK,pondís,1322
16372f1aaf14c3,9842,1,1,82,https://d3uxfe7dw0hhy7.cloudfront.net/annie-helms/span_perception_stimuli/F3_st6,398,70,OK,pondis,1480
16372f25350adc,e9d2,1,1,59,https://d3uxfe7dw0hhy7.cloudfront.net/annie-helms/span_perception_stimuli/F6_st1,392,75,OK,pondís,455
16372f1aca5903,947a,1,1,107,https://d3uxfe7dw0hhy7.cloudfront.net/annie-helms/span_perception_stimuli/F2_st3,398,55,OK,pondís,419
16372f29602b5b,9a85,1,1,31,https://d3uxfe7dw0hhy7.cloudfront.net/annie-helms/span_perception_stimuli/F3_dur6,405,10,OK,pondís,592
16372f25350adc,e9d2,1,1,60,https://d3uxfe7dw0hhy7.cloudfront.net/annie-helms/span_perception_stimuli/st2_dur5,418,55,OK,pondís,407
16372f1aaf14c3,9842,1,1,83,https://d3uxfe7dw0hhy7.cloudfront.net/annie-helms/span_perception_stimuli/st6_dur6,414,45,OK,pondís,799
16372f1f93325b,9e20,1,1,52,https://d3uxfe7dw0hhy7.cloudfront.net/annie-helms/span_perception_stimuli/st1_dur4,413,15,OK,pondis,2049
16372f29602b5b,9a85,1,1,32,https://d3uxfe7dw0hhy7.cloudfront.net/annie-helms/span_perception_stimuli/F2_st3,398,10,OK,pondís,520
16372f25350adc,e9d2,1,1,61,https://d3uxfe7dw0hhy7.cloudfront.net/annie-helms/span_perception_stimuli/st6_dur2,404,65,OK,pondís,458
16372f1aaf14c3,9842,1,1,84,https://d3uxfe7dw0hhy7.cloudfront.net/annie-helms/span_perception_stimuli/st3_dur2,404,70,OK,pondis,918
16372f29602b5b,9a85,1,1,33,https://d3uxfe7dw0hhy7.cloudfront.net/annie-helms/span_perception_stimuli/F3_st2,398,10,OK,pondís,656
16372f25350adc,e9d2,1,1,62,https://d3uxfe7dw0hhy7.cloudfront.net/annie-helms/span_perception_stimuli/F6_dur6,409,55,OK,pondís,616
16372f1f93325b,9e20,1,1,53,https://d3uxfe7dw0hhy7.cloudfront.net/annie-helms/span_perception_stimuli/F4_dur1,393,40,OK,pondis,1609
16372f1aaf14c3,9842,1,1,85,https://d3uxfe7dw0hhy7.cloudfront.net/annie-helms/span_perception_stimuli/st1_dur4,413,100,OK,pondís,488
16372f29602b5b,9a85,1,1,34,https://d3uxfe7dw0hhy7.cloudfront.net/annie-helms/span_perception_stimuli/st6_dur4,413,10,OK,pondis,434
16372f25350adc,e9d2,1,1,63,https://d3uxfe7dw0hhy7.cloudfront.net/annie-helms/span_perception_stimuli/F5_dur3,401,60,OK,pondís,620
16372f1aaf14c3,9842,1,1,86,https://d3uxfe7dw0hhy7.cloudfront.net/annie-helms/span_perception_stimuli/st5_dur4,413,45,OK,pondis,833
16372f29602b5b,9a85,1,1,35,https://d3uxfe7dw0hhy7.cloudfront.net/annie-helms/span_perception_stimuli/F1_dur1,393,10,OK,pondis,158
16372f25350adc,e9d2,1,1,64,https://d3uxfe7dw0hhy7.cloudfront.net/annie-helms/span_perception_stimuli/F2_dur5,411,45,OK,pondís,547
16372f1f93325b,9e20,1,1,54,https://d3uxfe7dw0hhy7.cloudfront.net/annie-helms/span_perception_stimuli/st3_dur2,404,15,OK,pondis,2822
16372f29602b5b,9a85,1,1,36,https://d3uxfe7dw0hhy7.cloudfront.net/annie-helms/span_perception_stimuli/st5_dur3,409,10,OK,pondís,412
16372f25350adc,e9d2,1,1,65,https://d3uxfe7dw0hhy7.cloudfront.net/annie-helms/span_perception_stimuli/F6_st4,393,95,OK,pondís,473
16372f1aaf14c3,9842,1,1,87,https://d3uxfe7dw0hhy7.cloudfront.net/annie-helms/span_perception_stimuli/F1_st6,398,40,OK,pondís,2106
16372f1f93325b,9e20,1,1,55,https://d3uxfe7dw0hhy7.cloudfront.net/annie-helms/span_perception_stimuli/F5_st5,400,50,OK,pondís,1724
16372f25350adc,e9d2,1,1,66,https://d3uxfe7dw0hhy7.cloudfront.net/annie-helms/span_perception_stimuli/F5_dur4,405,50,OK,pondís,468
16372f29602b5b,9a85,1,1,37,https://d3uxfe7dw0hhy7.cloudfront.net/annie-helms/span_perception_stimuli/F4_st2,399,10,OK,pondis,1937
16372f1aaf14c3,9842,1,1,88,https://d3uxfe7dw0hhy7.cloudfront.net/annie-helms/span_perception_stimuli/st5_dur1,400,70,OK,pondis,908
16372f25350adc,e9d2,1,1,67,https://d3uxfe7dw0hhy7.cloudfront.net/annie-helms/span_perception_stimuli/st4_dur2,404,75,OK,pondís,620
16372f1f93325b,9e20,1,1,56,https://d3uxfe7dw0hhy7.cloudfront.net/annie-helms/span_perception_stimuli/F6_dur2,391,15,OK,pondís,1199
16372f29602b5b,9a85,1,1,38,https://d3uxfe7dw0hhy7.cloudfront.net/annie-helms/span_perception_stimuli/F4_st5,399,25,OK,pondis,917
16372f1aaf14c3,9842,1,1,89,https://d3uxfe7dw0hhy7.cloudfront.net/annie-helms/span_perception_stimuli/F1_st3,398,75,OK,pondis,1650
16372f25350adc,e9d2,1,1,68,https://d3uxfe7dw0hhy7.cloudfront.net/annie-helms/span_perception_stimuli/F4_st3,399,40,OK,pondís,1202
16372f29602b5b,9a85,1,1,39,https://d3uxfe7dw0hhy7.cloudfront.net/annie-helms/span_perception_stimuli/F1_dur3,402,10,OK,pondis,860
16372f1f93325b,9e20,1,1,57,https://d3uxfe7dw0hhy7.cloudfront.net/annie-helms/span_perception_stimuli/F6_st5,392,15,OK,pondís,1655
16372f1aaf14c3,9842,1,1,90,https://d3uxfe7dw0hhy7.cloudfront.net/annie-helms/span_perception_stimuli/st3_dur6,414,65,OK,pondis,763
16372f25350adc,e9d2,1,1,69,https://d3uxfe7dw0hhy7.cloudfront.net/annie-helms/span_perception_stimuli/F3_st6,398,55,OK,pondís,720
16372f29602b5b,9a85,1,1,40,https://d3uxfe7dw0hhy7.cloudfront.net/annie-helms/span_perception_stimuli/F6_dur1,387,10,OK,pondís,984
16372f1f93325b,9e20,1,1,58,https://d3uxfe7dw0hhy7.cloudfront.net/annie-helms/span_perception_stimuli/st3_dur4,413,15,OK,pondis,1560
16372f1aaf14c3,9842,1,1,91,https://d3uxfe7dw0hhy7.cloudfront.net/annie-helms/span_perception_stimuli/F5_st5,400,40,OK,pondis,1269
16372f25350adc,e9d2,1,1,70,https://d3uxfe7dw0hhy7.cloudfront.net/annie-helms/span_perception_stimuli/F4_dur1,393,55,OK,pondís,633
16372f29602b5b,9a85,1,1,41,https://d3uxfe7dw0hhy7.cloudfront.net/annie-helms/span_perception_stimuli/F6_st2,392,10,OK,pondís,328
16372f29602b5b,9a85,1,1,42,https://d3uxfe7dw0hhy7.cloudfront.net/annie-helms/span_perception_stimuli/st2_dur6,414,10,OK,pondís,338
16372f1f93325b,9e20,1,1,59,https://d3uxfe7dw0hhy7.cloudfront.net/annie-helms/span_perception_stimuli/F6_dur1,387,10,OK,pondis,1313
16372f1aaf14c3,9842,1,1,92,https://d3uxfe7dw0hhy7.cloudfront.net/annie-helms/span_perception_stimuli/F2_st4,398,40,OK,pondis,976
16372f25350adc,e9d2,1,1,71,https://d3uxfe7dw0hhy7.cloudfront.net/annie-helms/span_perception_stimuli/st3_dur5,418,75,OK,pondís,569
16372f29602b5b,9a85,1,1,43,https://d3uxfe7dw0hhy7.cloudfront.net/annie-helms/span_perception_stimuli/F5_dur5,410,10,OK,pondis,628
16372f25350adc,e9d2,1,1,72,https://d3uxfe7dw0hhy7.cloudfront.net/annie-helms/span_perception_stimuli/st5_dur3,409,60,OK,pondis,931
16372f1aaf14c3,9842,1,1,93,https://d3uxfe7dw0hhy7.cloudfront.net/annie-helms/span_perception_stimuli/st5_dur3,409,45,OK,pondis,1256
16372f1f93325b,9e20,1,1,60,https://d3uxfe7dw0hhy7.cloudfront.net/annie-helms/span_perception_stimuli/st2_dur3,408,15,OK,pondis,1991
16372f29602b5b,9a85,1,1,44,https://d3uxfe7dw0hhy7.cloudfront.net/annie-helms/span_perception_stimuli/F4_dur1,393,10,OK,pondis,368
16372f25350adc,e9d2,1,1,73,https://d3uxfe7dw0hhy7.cloudfront.net/annie-helms/span_perception_stimuli/F4_st2,399,60,OK,pondis,622
16372f1aaf14c3,9842,1,1,94,https://d3uxfe7dw0hhy7.cloudfront.net/annie-helms/span_perception_stimuli/F4_dur2,398,35,OK,pondís,695
16372f29602b5b,9a85,1,1,45,https://d3uxfe7dw0hhy7.cloudfront.net/annie-helms/span_perception_stimuli/st6_dur6,414,10,OK,pondis,256
16372f1f93325b,9e20,1,1,61,https://d3uxfe7dw0hhy7.cloudfront.net/annie-helms/span_perception_stimuli/F5_st1,400,30,OK,pondis,1519
16372f25350adc,e9d2,1,1,74,https://d3uxfe7dw0hhy7.cloudfront.net/annie-helms/span_perception_stimuli/F5_st2,400,65,OK,pondis,543
16372f1aaf14c3,9842,1,1,95,https://d3uxfe7dw0hhy7.cloudfront.net/annie-helms/span_perception_stimuli/st2_dur2,404,40,OK,pondis,692
16372f25350adc,e9d2,1,1,75,https://d3uxfe7dw0hhy7.cloudfront.net/annie-helms/span_perception_stimuli/F5_st5,400,60,OK,pondís,606
16372f29602b5b,9a85,1,1,46,https://d3uxfe7dw0hhy7.cloudfront.net/annie-helms/span_perception_stimuli/F3_dur5,408,10,OK,pondis,1991
16372f1f93325b,9e20,1,1,62,https://d3uxfe7dw0hhy7.cloudfront.net/annie-helms/span_perception_stimuli/st3_dur5,418,10,OK,pondís,1365
16372f1aaf14c3,9842,1,1,96,https://d3uxfe7dw0hhy7.cloudfront.net/annie-helms/span_perception_stimuli/F5_dur2,397,40,OK,pondís,777
16372f29602b5b,9a85,1,1,47,https://d3uxfe7dw0hhy7.cloudfront.net/annie-helms/span_perception_stimuli/st4_dur6,414,10,OK,pondís,553
16372f25350adc,e9d2,1,1,76,https://d3uxfe7dw0hhy7.cloudfront.net/annie-helms/span_perception_stimuli/F6_st3,393,60,OK,pondís,637
16372f1aaf14c3,9842,1,1,97,https://d3uxfe7dw0hhy7.cloudfront.net/annie-helms/span_perception_stimuli/F5_st3,400,55,OK,pondis,850
16372f29602b5b,9a85,1,1,48,https://d3uxfe7dw0hhy7.cloudfront.net/annie-helms/span_perception_stimuli/F2_dur1,393,10,OK,pondís,312
16372f25350adc,e9d2,1,1,77,https://d3uxfe7dw0hhy7.cloudfront.net/annie-helms/span_perception_stimuli/st5_dur1,400,50,OK,pondis,463
16372f1f93325b,9e20,1,1,63,https://d3uxfe7dw0hhy7.cloudfront.net/annie-helms/span_perception_stimuli/F1_st6,398,20,unallowed_response,pondis,2156
16372f1aaf14c3,9842,1,1,98,https://d3uxfe7dw0hhy7.cloudfront.net/annie-helms/span_perception_stimuli/F6_st6,393,40,OK,pondís,727
16372f29602b5b,9a85,1,1,49,https://d3uxfe7dw0hhy7.cloudfront.net/annie-helms/span_perception_stimuli/F6_st6,393,10,OK,pondís,422
16372f25350adc,e9d2,1,1,78,https://d3uxfe7dw0hhy7.cloudfront.net/annie-helms/span_perception_stimuli/F1_dur2,397,95,OK,pondis,454
16372f1f93325b,9e20,1,1,64,https://d3uxfe7dw0hhy7.cloudfront.net/annie-helms/span_perception_stimuli/F6_st4,393,15,OK,pondís,2032
16372f29602b5b,9a85,1,1,50,https://d3uxfe7dw0hhy7.cloudfront.net/annie-helms/span_perception_stimuli/F6_st5,392,10,OK,pondís,506
16372f25350adc,e9d2,1,1,79,https://d3uxfe7dw0hhy7.cloudfront.net/annie-helms/span_perception_stimuli/F3_dur3,400,55,OK,pondis,439
16372f1aaf14c3,9842,1,1,99,https://d3uxfe7dw0hhy7.cloudfront.net/annie-helms/span_perception_stimuli/F5_dur5,410,40,OK,pondis,828
16372f29602b5b,9a85,1,1,51,https://d3uxfe7dw0hhy7.cloudfront.net/annie-helms/span_perception_stimuli/st1_dur4,413,10,OK,pondís,177
16372f1aaf14c3,9842,1,1,100,https://d3uxfe7dw0hhy7.cloudfront.net/annie-helms/span_perception_stimuli/st3_dur5,418,45,OK,pondís,1086
16372f25350adc,e9d2,1,1,80,https://d3uxfe7dw0hhy7.cloudfront.net/annie-helms/span_perception_stimuli/F5_dur5,410,60,OK,pondis,348
16372f1f93325b,9e20,1,1,65,https://d3uxfe7dw0hhy7.cloudfront.net/annie-helms/span_perception_stimuli/F3_dur5,408,15,OK,pondís,1326
16372f29602b5b,9a85,1,1,52,https://d3uxfe7dw0hhy7.cloudfront.net/annie-helms/span_perception_stimuli/st2_dur4,413,10,OK,pondís,258
16372f25350adc,e9d2,1,1,81,https://d3uxfe7dw0hhy7.cloudfront.net/annie-helms/span_perception_stimuli/st4_dur4,413,50,OK,pondis,527
16372f1aaf14c3,9842,1,1,101,https://d3uxfe7dw0hhy7.cloudfront.net/annie-helms/span_perception_stimuli/st4_dur4,413,65,OK,pondís,785
16372f29602b5b,9a85,1,1,53,https://d3uxfe7dw0hhy7.cloudfront.net/annie-helms/span_perception_stimuli/st1_dur3,409,10,OK,pondís,162
16372f1f93325b,9e20,1,1,66,https://d3uxfe7dw0hhy7.cloudfront.net/annie-helms/span_perception_stimuli/st3_dur1,400,15,OK,pondís,1263
16372f25350adc,e9d2,1,1,82,https://d3uxfe7dw0hhy7.cloudfront.net/annie-helms/span_perception_stimuli/F2_st4,398,55,OK,pondís,731
16372f1aaf14c3,9842,1,1,102,https://d3uxfe7dw0hhy7.cloudfront.net/annie-helms/span_perception_stimuli/st3_dur3,409,45,OK,pondís,929
16372f29602b5b,9a85,1,1,54,https://d3uxfe7dw0hhy7.cloudfront.net/annie-helms/span_perception_stimuli/st2_dur1,400,10,OK,pondis,374
16372f1f93325b,9e20,1,1,67,https://d3uxfe7dw0hhy7.cloudfront.net/annie-helms/span_perception_stimuli/st6_dur1,400,15,OK,pondís,1732
16372f25350adc,e9d2,1,1,83,https://d3uxfe7dw0hhy7.cloudfront.net/annie-helms/span_perception_stimuli/st1_dur1,400,60,OK,pondís,630
16372f29602b5b,9a85,1,1,55,https://d3uxfe7dw0hhy7.cloudfront.net/annie-helms/span_perception_stimuli/F3_st6,398,10,OK,pondis,381
16372f1aaf14c3,9842,1,1,103,https://d3uxfe7dw0hhy7.cloudfront.net/annie-helms/span_perception_stimuli/F4_dur6,408,45,OK,pondis,805
16372f29602b5b,9a85,1,1,56,https://d3uxfe7dw0hhy7.cloudfront.net/annie-helms/span_perception_stimuli/st5_dur1,400,10,OK,pondis,407
16372f25350adc,e9d2,1,1,84,https://d3uxfe7dw0hhy7.cloudfront.net/annie-helms/span_perception_stimuli/st4_dur6,414,75,OK,pondís,459
16372f1aaf14c3,9842,1,1,104,https://d3uxfe7dw0hhy7.cloudfront.net/annie-helms/span_perception_stimuli/st1_dur5,418,45,OK,pondís,713
16372f1f93325b,9e20,1,1,68,https://d3uxfe7dw0hhy7.cloudfront.net/annie-helms/span_perception_stimuli/F3_st4,398,55,OK,pondís,1680
16372f29602b5b,9a85,1,1,57,https://d3uxfe7dw0hhy7.cloudfront.net/annie-helms/span_perception_stimuli/F5_dur3,401,10,OK,pondis,112
16372f25350adc,e9d2,1,1,85,https://d3uxfe7dw0hhy7.cloudfront.net/annie-helms/span_perception_stimuli/F6_dur4,400,55,OK,pondís,507
16372f1aca5903,947a,1,2,0,https://d3uxfe7dw0hhy7.cloudfront.net/annie-helms/span_perception_stimuli/F6_st5,392,20,OK,pondís,2460
16372f1aaf14c3,9842,1,1,105,https://d3uxfe7dw0hhy7.cloudfront.net/annie-helms/span_perception_stimuli/F5_dur6,407,45,OK,pondis,932
16372f29602b5b,9a85,1,1,58,https://d3uxfe7dw0hhy7.cloudfront.net/annie-helms/span_perception_stimuli/F1_dur5,410,10,OK,pondis,473
16372f1f93325b,9e20,1,1,69,https://d3uxfe7dw0hhy7.cloudfront.net/annie-helms/span_perception_stimuli/F4_st2,399,15,OK,pondís,1658
16372f25350adc,e9d2,1,1,86,https://d3uxfe7dw0hhy7.cloudfront.net/annie-helms/span_perception_stimuli/F2_st1,398,55,OK,pondís,435
16372f1aca5903,947a,1,2,1,https://d3uxfe7dw0hhy7.cloudfront.net/annie-helms/span_perception_stimuli/st6_dur2,404,25,OK,pondís,626
16372f29602b5b,9a85,1,1,59,https://d3uxfe7dw0hhy7.cloudfront.net/annie-helms/span_perception_stimuli/F5_dur4,405,10,OK,pondis,467
16372f25350adc,e9d2,1,1,87,https://d3uxfe7dw0hhy7.cloudfront.net/annie-helms/span_perception_stimuli/st6_dur3,409,55,OK,pondís,430
16372f1aaf14c3,9842,1,1,106,https://d3uxfe7dw0hhy7.cloudfront.net/annie-helms/span_perception_stimuli/F6_st3,393,40,OK,pondís,1695
16372f1aca5903,947a,1,2,2,https://d3uxfe7dw0hhy7.cloudfront.net/annie-helms/span_perception_stimuli/F3_st6,398,25,OK,pondís,802
