key_resp.keys,key_resp.rt,key_resp_2.keys,key_resp_2.rt,trials_2.thisRepN,trials_2.thisTrialN,trials_2.thisN,trials_2.thisIndex,trials_2.ran,trialspanish,participant ID,date,expName,psychopyVersion,OS,frameRate,key_resp_3.keys,key_resp_3.rt,key_resp_4.keys,key_resp_4.rt,trials_randomizer.thisRepN,trials_randomizer.thisTrialN,trials_randomizer.thisN,trials_randomizer.thisIndex,trials_randomizer.ran,fillertarget,stress,wordspanish,verbspanish,rand_12,block_randomizer.thisRepN,block_randomizer.thisTrialN,block_randomizer.thisN,block_randomizer.thisIndex,block_randomizer.ran,condsFile,key_resp_5.keys,key_resp_5.rt,mainTrialReps.thisRepN,mainTrialReps.thisTrialN,mainTrialReps.thisN,mainTrialReps.thisIndex,mainTrialReps.ran,trials_randomizer2.thisRepN,trials_randomizer2.thisTrialN,trials_randomizer2.thisN,trials_randomizer2.thisIndex,trials_randomizer2.ran,block_randomizer2.thisRepN,block_randomizer2.thisTrialN,block_randomizer2.thisN,block_randomizer2.thisIndex,block_randomizer2.ran
space,1552.9943,space,6.0713,0,0,0,0,1,"""Le regaló una camiseta a su sobrino"" —digo contento.",dis022,02/21/2023_20h22.53.784,spanish_exp2,2022.1.4,Win32,61.00536847,,,,,,,,,,,,,,,,,,,,,,,,,,,,,,,,,,,,,
,,space,4.62,0,1,1,2,1,"""Me gustaría un café"" —pienso complacido.",dis022,02/21/2023_20h22.53.784,spanish_exp2,2022.1.4,Win32,61.00536847,,,,,,,,,,,,,,,,,,,,,,,,,,,,,,,,,,,,,
,,space,4.1161,0,2,2,1,1,"""Depende del clima"" —respondió claramente.",dis022,02/21/2023_20h22.53.784,spanish_exp2,2022.1.4,Win32,61.00536847,,,,,,,,,,,,,,,,,,,,,,,,,,,,,,,,,,,,,
,,space,4.325,0,3,3,3,1,"""Te quiero mucho"" —suspiró contenta Teresa.",dis022,02/21/2023_20h22.53.784,spanish_exp2,2022.1.4,Win32,61.00536847,,,,,,,,,,,,,,,,,,,,,,,,,,,,,,,,,,,,,
,,,,,,,,,,dis022,02/21/2023_20h22.53.784,spanish_exp2,2022.1.4,Win32,61.00536847,space,6.2501,space,5.9224,0,0,0,4,1,target,ultimate,"""Desarrollen esta ecuación"" —los examinó seriosamente.",examinar,2,,,,,,,,,,,,,,,,,,,,,,,
,,,,,,,,,,dis022,02/21/2023_20h22.53.784,spanish_exp2,2022.1.4,Win32,61.00536847,,,space,4.7669,0,1,1,5,1,target,penultimate,"""Estas son las luces nuevas"" —ilumino contenta.",iluminar,2,,,,,,,,,,,,,,,,,,,,,,,
,,,,,,,,,,dis022,02/21/2023_20h22.53.784,spanish_exp2,2022.1.4,Win32,61.00536847,,,space,5.0545,0,2,2,11,1,target,penultimate,"""Los Osvald, culpables"" —les incrimino seguro.",incriminar,2,,,,,,,,,,,,,,,,,,,,,,,
,,,,,,,,,,dis022,02/21/2023_20h22.53.784,spanish_exp2,2022.1.4,Win32,61.00536847,,,space,6.4335,0,3,3,2,1,target,ultimate,"""Este es el camino más corto"" —la descaminó complacido.",descaminar,2,,,,,,,,,,,,,,,,,,,,,,,
,,,,,,,,,,dis022,02/21/2023_20h22.53.784,spanish_exp2,2022.1.4,Win32,61.00536847,,,space,6.8296,0,4,4,3,1,target,penultimate,"""La directora Pérez renuncia a su cargo"" —disemino compungido.",diseminar,2,,,,,,,,,,,,,,,,,,,,,,,
,,,,,,,,,,dis022,02/21/2023_20h22.53.784,spanish_exp2,2022.1.4,Win32,61.00536847,,,space,12.0422,0,5,5,13,1,target,penultimate,"""Se llamará beta"" —lo denomino complacido.",denominar,2,,,,,,,,,,,,,,,,,,,,,,,
,,,,,,,,,,dis022,02/21/2023_20h22.53.784,spanish_exp2,2022.1.4,Win32,61.00536847,,,space,18.9315,0,6,6,9,1,target,penultimate,"""No puedo estudiar matemáticas"" —me desanimo compungida.",desanimar,2,,,,,,,,,,,,,,,,,,,,,,,
,,,,,,,,,,dis022,02/21/2023_20h22.53.784,spanish_exp2,2022.1.4,Win32,61.00536847,,,space,5.2638,0,7,7,7,1,target,penultimate,"""No me gusta su conducta"" —les recrimino con intensidad.",recriminar,2,,,,,,,,,,,,,,,,,,,,,,,
,,,,,,,,,,dis022,02/21/2023_20h22.53.784,spanish_exp2,2022.1.4,Win32,61.00536847,,,space,5.2947,0,8,8,1,1,target,penultimate,"""La masa del átomo es medible"" —determino complacida.",determinar,2,,,,,,,,,,,,,,,,,,,,,,,
,,,,,,,,,,dis022,02/21/2023_20h22.53.784,spanish_exp2,2022.1.4,Win32,61.00536847,,,space,4.2972,0,9,9,8,1,target,ultimate,"""Este es más fuerte"" —discriminó tímida.",discriminar,2,,,,,,,,,,,,,,,,,,,,,,,
,,,,,,,,,,dis022,02/21/2023_20h22.53.784,spanish_exp2,2022.1.4,Win32,61.00536847,,,space,4.6601,0,10,10,0,1,target,ultimate,"""No me gustan las corridas"" —abominó con certeza.",abominar,2,,,,,,,,,,,,,,,,,,,,,,,
,,,,,,,,,,dis022,02/21/2023_20h22.53.784,spanish_exp2,2022.1.4,Win32,61.00536847,,,space,3.939,0,11,11,10,1,target,ultimate,"""Tarjeta roja"" —los eliminó segura.",eliminar,2,,,,,,,,,,,,,,,,,,,,,,,
,,,,,,,,,,dis022,02/21/2023_20h22.53.784,spanish_exp2,2022.1.4,Win32,61.00536847,,,space,7.2682,0,12,12,12,1,target,ultimate,"""Este insecticida es muy eficaz"" —exterminó complacida.",exterminar,2,,,,,,,,,,,,,,,,,,,,,,,
,,,,,,,,,,dis022,02/21/2023_20h22.53.784,spanish_exp2,2022.1.4,Win32,61.00536847,,,space,4.7203,0,13,13,6,1,target,ultimate,"""Lee estos artículos"" —le encaminó con ilusión.",encaminar,2,,,,,,,,,,,,,,,,,,,,,,,
,,,,,,,,,,dis022,02/21/2023_20h22.53.784,spanish_exp2,2022.1.4,Win32,61.00536847,,,,,,,,,,,,,,,0,0,0,1,1,main_trial_block2.xlsx,,,,,,,,,,,,,,,,,
,,,,,,,,,,dis022,02/21/2023_20h22.53.784,spanish_exp2,2022.1.4,Win32,61.00536847,,,space,5.2324,0,0,0,13,1,target,ultimate,"""Retrato de un hombre triste"" —lo denominó complacido. ",denominar,1,,,,,,,,,,,,,,,,,,,,,,,
,,,,,,,,,,dis022,02/21/2023_20h22.53.784,spanish_exp2,2022.1.4,Win32,61.00536847,,,space,4.6271,0,1,1,7,1,target,ultimate,"""Me robaron"" —les recriminó con intensidad.",recriminar,1,,,,,,,,,,,,,,,,,,,,,,,
,,,,,,,,,,dis022,02/21/2023_20h22.53.784,spanish_exp2,2022.1.4,Win32,61.00536847,,,space,8.2555,0,2,2,0,1,target,penultimate,"""No me gusta el té de manzanilla"" —abomino con certeza.",abominar,1,,,,,,,,,,,,,,,,,,,,,,,
,,,,,,,,,,dis022,02/21/2023_20h22.53.784,spanish_exp2,2022.1.4,Win32,61.00536847,,,space,4.9737,0,3,3,6,1,target,penultimate,"""Confirma la cita para mañana"" —le encamino con ilusión. ",encaminar,1,,,,,,,,,,,,,,,,,,,,,,,
,,,,,,,,,,dis022,02/21/2023_20h22.53.784,spanish_exp2,2022.1.4,Win32,61.00536847,,,space,4.7972,0,4,4,5,1,target,ultimate,"""Compré esta lámpara ayer"" —iluminó contenta.",iluminar,1,,,,,,,,,,,,,,,,,,,,,,,
,,,,,,,,,,dis022,02/21/2023_20h22.53.784,spanish_exp2,2022.1.4,Win32,61.00536847,,,space,6.368,0,5,5,9,1,target,ultimate,"""No puedo cocinar sin quemar la comida"" —me desanimó compungida.",desanimar,1,,,,,,,,,,,,,,,,,,,,,,,
,,,,,,,,,,dis022,02/21/2023_20h22.53.784,spanish_exp2,2022.1.4,Win32,61.00536847,,,space,5.4798,0,6,6,12,1,target,penultimate,"""No habrá más cucarachas"" —extermino complacida.",exterminar,1,,,,,,,,,,,,,,,,,,,,,,,
,,,,,,,,,,dis022,02/21/2023_20h22.53.784,spanish_exp2,2022.1.4,Win32,61.00536847,,,space,5.7486,0,7,7,10,1,target,penultimate,"""No son necesarios"" —los elimino segura.",eliminar,1,,,,,,,,,,,,,,,,,,,,,,,
,,,,,,,,,,dis022,02/21/2023_20h22.53.784,spanish_exp2,2022.1.4,Win32,61.00536847,,,space,4.8839,0,8,8,4,1,target,penultimate,"""Escriban la respuesta"" —los examino seriosamente.",examinar,1,,,,,,,,,,,,,,,,,,,,,,,
,,,,,,,,,,dis022,02/21/2023_20h22.53.784,spanish_exp2,2022.1.4,Win32,61.00536847,,,space,5.2356,0,9,9,8,1,target,penultimate,"""Este tiene menos azúcar"" —discrimino tímida.",discriminar,1,,,,,,,,,,,,,,,,,,,,,,,
,,,,,,,,,,dis022,02/21/2023_20h22.53.784,spanish_exp2,2022.1.4,Win32,61.00536847,,,space,4.9405,0,10,10,11,1,target,ultimate,"""Entraron sin pedir permiso"" —les incriminó seguro.",incriminar,1,,,,,,,,,,,,,,,,,,,,,,,
,,,,,,,,,,dis022,02/21/2023_20h22.53.784,spanish_exp2,2022.1.4,Win32,61.00536847,,,space,5.4538,0,11,11,1,1,target,ultimate,"""Con la lluvia el viento es muy fuerte"" —determinó complacida.",determinar,1,,,,,,,,,,,,,,,,,,,,,,,
,,,,,,,,,,dis022,02/21/2023_20h22.53.784,spanish_exp2,2022.1.4,Win32,61.00536847,,,space,4.7794,0,12,12,2,1,target,penultimate,"""Este no es mi número de teléfono"" —la descamino complacido.",descaminar,1,,,,,,,,,,,,,,,,,,,,,,,
,,,,,,,,,,dis022,02/21/2023_20h22.53.784,spanish_exp2,2022.1.4,Win32,61.00536847,,,space,6.3001,0,13,13,3,1,target,ultimate,"""El presidente del estado se encuentra enfermo"" —diseminó compungido.",diseminar,1,,,,,,,,,,,,,,,,,,,,,,,
,,,,,,,,,,dis022,02/21/2023_20h22.53.784,spanish_exp2,2022.1.4,Win32,61.00536847,,,,,,,,,,,,,,,0,1,1,0,1,main_trial_block1.xlsx,,,,,,,,,,,,,,,,,
,,,,,,,,,,dis022,02/21/2023_20h22.53.784,spanish_exp2,2022.1.4,Win32,61.00536847,,,,,,,,,,,,,,,,,,,,,space,10.1827,0,0,0,0,1,,,,,,,,,,
,,,,,,,,,,dis022,02/21/2023_20h22.53.784,spanish_exp2,2022.1.4,Win32,61.00536847,,,space,5.2901,0,0,0,1,1,target,ultimate,"""Con la lluvia el viento es muy fuerte"" —determinó complacida.",determinar,1,,,,,,,,,,,,,,,,,,,,,,,
,,,,,,,,,,dis022,02/21/2023_20h22.53.784,spanish_exp2,2022.1.4,Win32,61.00536847,,,space,5.1459,0,1,1,4,1,target,penultimate,"""Escriban la respuesta"" —los examino seriosamente.",examinar,1,,,,,,,,,,,,,,,,,,,,,,,
,,,,,,,,,,dis022,02/21/2023_20h22.53.784,spanish_exp2,2022.1.4,Win32,61.00536847,,,space,4.8475,0,2,2,8,1,target,penultimate,"""Este tiene menos azúcar"" —discrimino tímida.",discriminar,1,,,,,,,,,,,,,,,,,,,,,,,
,,,,,,,,,,dis022,02/21/2023_20h22.53.784,spanish_exp2,2022.1.4,Win32,61.00536847,,,space,5.1293,0,3,3,12,1,target,penultimate,"""No habrá más cucarachas"" —extermino complacida.",exterminar,1,,,,,,,,,,,,,,,,,,,,,,,
,,,,,,,,,,dis022,02/21/2023_20h22.53.784,spanish_exp2,2022.1.4,Win32,61.00536847,,,space,5.0647,0,4,4,11,1,target,ultimate,"""Entraron sin pedir permiso"" —les incriminó seguro.",incriminar,1,,,,,,,,,,,,,,,,,,,,,,,
,,,,,,,,,,dis022,02/21/2023_20h22.53.784,spanish_exp2,2022.1.4,Win32,61.00536847,,,space,5.214,0,5,5,13,1,target,ultimate,"""Retrato de un hombre triste"" —lo denominó complacido. ",denominar,1,,,,,,,,,,,,,,,,,,,,,,,
,,,,,,,,,,dis022,02/21/2023_20h22.53.784,spanish_exp2,2022.1.4,Win32,61.00536847,,,space,6.4769,0,6,6,9,1,target,ultimate,"""No puedo cocinar sin quemar la comida"" —me desanimó compungida.",desanimar,1,,,,,,,,,,,,,,,,,,,,,,,
,,,,,,,,,,dis022,02/21/2023_20h22.53.784,spanish_exp2,2022.1.4,Win32,61.00536847,,,space,5.2091,0,7,7,0,1,target,penultimate,"""No me gusta el té de manzanilla"" —abomino con certeza.",abominar,1,,,,,,,,,,,,,,,,,,,,,,,
,,,,,,,,,,dis022,02/21/2023_20h22.53.784,spanish_exp2,2022.1.4,Win32,61.00536847,,,space,5.0118,0,8,8,6,1,target,penultimate,"""Confirma la cita para mañana"" —le encamino con ilusión. ",encaminar,1,,,,,,,,,,,,,,,,,,,,,,,
,,,,,,,,,,dis022,02/21/2023_20h22.53.784,spanish_exp2,2022.1.4,Win32,61.00536847,,,space,5.3015,0,9,9,2,1,target,penultimate,"""Este no es mi número de teléfono"" —la descamino complacido.",descaminar,1,,,,,,,,,,,,,,,,,,,,,,,
,,,,,,,,,,dis022,02/21/2023_20h22.53.784,spanish_exp2,2022.1.4,Win32,61.00536847,,,space,4.217,0,10,10,10,1,target,penultimate,"""No son necesarios"" —los elimino segura.",eliminar,1,,,,,,,,,,,,,,,,,,,,,,,
,,,,,,,,,,dis022,02/21/2023_20h22.53.784,spanish_exp2,2022.1.4,Win32,61.00536847,,,space,5.9847,0,11,11,7,1,target,ultimate,"""Me robaron"" —les recriminó con intensidad.",recriminar,1,,,,,,,,,,,,,,,,,,,,,,,
,,,,,,,,,,dis022,02/21/2023_20h22.53.784,spanish_exp2,2022.1.4,Win32,61.00536847,,,space,5.7414,0,12,12,3,1,target,ultimate,"""El presidente del estado se encuentra enfermo"" —diseminó compungido.",diseminar,1,,,,,,,,,,,,,,,,,,,,,,,
,,,,,,,,,,dis022,02/21/2023_20h22.53.784,spanish_exp2,2022.1.4,Win32,61.00536847,,,space,4.3532,0,13,13,5,1,target,ultimate,"""Compré esta lámpara ayer"" —iluminó contenta.",iluminar,1,,,,,,,,,,,,,,,,,,,,,,,
,,,,,,,,,,dis022,02/21/2023_20h22.53.784,spanish_exp2,2022.1.4,Win32,61.00536847,,,,,,,,,,,,,,,0,0,0,0,1,main_trial_block1.xlsx,,,,,,,,,,,,,,,,,
,,,,,,,,,,dis022,02/21/2023_20h22.53.784,spanish_exp2,2022.1.4,Win32,61.00536847,,,space,5.5807,0,0,0,12,1,target,ultimate,"""Este insecticida es muy eficaz"" —exterminó complacida.",exterminar,2,,,,,,,,,,,,,,,,,,,,,,,
,,,,,,,,,,dis022,02/21/2023_20h22.53.784,spanish_exp2,2022.1.4,Win32,61.00536847,,,space,4.6297,0,1,1,7,1,target,penultimate,"""No me gusta su conducta"" —les recrimino con intensidad.",recriminar,2,,,,,,,,,,,,,,,,,,,,,,,
,,,,,,,,,,dis022,02/21/2023_20h22.53.784,spanish_exp2,2022.1.4,Win32,61.00536847,,,space,6.3382,0,2,2,3,1,target,penultimate,"""La directora Pérez renuncia a su cargo"" —disemino compungido.",diseminar,2,,,,,,,,,,,,,,,,,,,,,,,
,,,,,,,,,,dis022,02/21/2023_20h22.53.784,spanish_exp2,2022.1.4,Win32,61.00536847,,,space,4.8396,0,3,3,1,1,target,penultimate,"""La masa del átomo es medible"" —determino complacida.",determinar,2,,,,,,,,,,,,,,,,,,,,,,,
,,,,,,,,,,dis022,02/21/2023_20h22.53.784,spanish_exp2,2022.1.4,Win32,61.00536847,,,space,4.8558,0,4,4,11,1,target,penultimate,"""Los Osvald, culpables"" —les incrimino seguro.",incriminar,2,,,,,,,,,,,,,,,,,,,,,,,
,,,,,,,,,,dis022,02/21/2023_20h22.53.784,spanish_exp2,2022.1.4,Win32,61.00536847,,,space,5.1532,0,5,5,2,1,target,ultimate,"""Este es el camino más corto"" —la descaminó complacido.",descaminar,2,,,,,,,,,,,,,,,,,,,,,,,
,,,,,,,,,,dis022,02/21/2023_20h22.53.784,spanish_exp2,2022.1.4,Win32,61.00536847,,,space,5.3441,0,6,6,9,1,target,penultimate,"""No puedo estudiar matemáticas"" —me desanimo compungida.",desanimar,2,,,,,,,,,,,,,,,,,,,,,,,
,,,,,,,,,,dis022,02/21/2023_20h22.53.784,spanish_exp2,2022.1.4,Win32,61.00536847,,,space,4.6832,0,7,7,8,1,target,ultimate,"""Este es más fuerte"" —discriminó tímida.",discriminar,2,,,,,,,,,,,,,,,,,,,,,,,
,,,,,,,,,,dis022,02/21/2023_20h22.53.784,spanish_exp2,2022.1.4,Win32,61.00536847,,,space,5.657,0,8,8,6,1,target,ultimate,"""Lee estos artículos"" —le encaminó con ilusión.",encaminar,2,,,,,,,,,,,,,,,,,,,,,,,
,,,,,,,,,,dis022,02/21/2023_20h22.53.784,spanish_exp2,2022.1.4,Win32,61.00536847,,,space,4.8269,0,9,9,13,1,target,penultimate,"""Se llamará beta"" —lo denomino complacido.",denominar,2,,,,,,,,,,,,,,,,,,,,,,,
,,,,,,,,,,dis022,02/21/2023_20h22.53.784,spanish_exp2,2022.1.4,Win32,61.00536847,,,space,4.4399,0,10,10,10,1,target,ultimate,"""Tarjeta roja"" —los eliminó segura.",eliminar,2,,,,,,,,,,,,,,,,,,,,,,,
,,,,,,,,,,dis022,02/21/2023_20h22.53.784,spanish_exp2,2022.1.4,Win32,61.00536847,,,space,5.2377,0,11,11,4,1,target,ultimate,"""Desarrollen esta ecuación"" —los examinó seriosamente.",examinar,2,,,,,,,,,,,,,,,,,,,,,,,
,,,,,,,,,,dis022,02/21/2023_20h22.53.784,spanish_exp2,2022.1.4,Win32,61.00536847,,,space,4.6369,0,12,12,0,1,target,ultimate,"""No me gustan las corridas"" —abominó con certeza.",abominar,2,,,,,,,,,,,,,,,,,,,,,,,
,,,,,,,,,,dis022,02/21/2023_20h22.53.784,spanish_exp2,2022.1.4,Win32,61.00536847,,,space,4.6936,0,13,13,5,1,target,penultimate,"""Estas son las luces nuevas"" —ilumino contenta.",iluminar,2,,,,,,,,,,,,,,,,,,,,,,,
,,,,,,,,,,dis022,02/21/2023_20h22.53.784,spanish_exp2,2022.1.4,Win32,61.00536847,,,,,,,,,,,,,,,0,1,1,1,1,main_trial_block2.xlsx,,,,,,,,,,,,,,,,,
,,,,,,,,,,dis022,02/21/2023_20h22.53.784,spanish_exp2,2022.1.4,Win32,61.00536847,,,,,,,,,,,,,,,,,,,,,space,6.4335,1,0,1,0,1,,,,,,,,,,
,,,,,,,,,,dis022,02/21/2023_20h22.53.784,spanish_exp2,2022.1.4,Win32,61.00536847,,,space,4.6498,,,,,,target,penultimate,"""Se llamará beta"" —lo denomino complacido.",denominar,2,,,,,,,,,,,,,,0,0,0,13,1,,,,,
,,,,,,,,,,dis022,02/21/2023_20h22.53.784,spanish_exp2,2022.1.4,Win32,61.00536847,,,space,4.4881,,,,,,target,penultimate,"""La masa del átomo es medible"" —determino complacida.",determinar,2,,,,,,,,,,,,,,0,1,1,1,1,,,,,
,,,,,,,,,,dis022,02/21/2023_20h22.53.784,spanish_exp2,2022.1.4,Win32,61.00536847,,,space,4.6141,,,,,,target,penultimate,"""No me gusta su conducta"" —les recrimino con intensidad.",recriminar,2,,,,,,,,,,,,,,0,2,2,7,1,,,,,
,,,,,,,,,,dis022,02/21/2023_20h22.53.784,spanish_exp2,2022.1.4,Win32,61.00536847,,,space,3.8422,,,,,,target,ultimate,"""Tarjeta roja"" —los eliminó segura.",eliminar,2,,,,,,,,,,,,,,0,3,3,10,1,,,,,
,,,,,,,,,,dis022,02/21/2023_20h22.53.784,spanish_exp2,2022.1.4,Win32,61.00536847,,,space,5.1195,,,,,,target,ultimate,"""Este insecticida es muy eficaz"" —exterminó complacida.",exterminar,2,,,,,,,,,,,,,,0,4,4,12,1,,,,,
,,,,,,,,,,dis022,02/21/2023_20h22.53.784,spanish_exp2,2022.1.4,Win32,61.00536847,,,space,4.4363,,,,,,target,penultimate,"""Estas son las luces nuevas"" —ilumino contenta.",iluminar,2,,,,,,,,,,,,,,0,5,5,5,1,,,,,
,,,,,,,,,,dis022,02/21/2023_20h22.53.784,spanish_exp2,2022.1.4,Win32,61.00536847,,,space,4.9072,,,,,,target,penultimate,"""La directora Pérez renuncia a su cargo"" —disemino compungido.",diseminar,2,,,,,,,,,,,,,,0,6,6,3,1,,,,,
,,,,,,,,,,dis022,02/21/2023_20h22.53.784,spanish_exp2,2022.1.4,Win32,61.00536847,,,space,5.106,,,,,,target,penultimate,"""No puedo estudiar matemáticas"" —me desanimo compungida.",desanimar,2,,,,,,,,,,,,,,0,7,7,9,1,,,,,
,,,,,,,,,,dis022,02/21/2023_20h22.53.784,spanish_exp2,2022.1.4,Win32,61.00536847,,,space,5.9687,,,,,,target,ultimate,"""Este es el camino más corto"" —la descaminó complacido.",descaminar,2,,,,,,,,,,,,,,0,8,8,2,1,,,,,
,,,,,,,,,,dis022,02/21/2023_20h22.53.784,spanish_exp2,2022.1.4,Win32,61.00536847,,,space,4.4808,,,,,,target,ultimate,"""Este es más fuerte"" —discriminó tímida.",discriminar,2,,,,,,,,,,,,,,0,9,9,8,1,,,,,
,,,,,,,,,,dis022,02/21/2023_20h22.53.784,spanish_exp2,2022.1.4,Win32,61.00536847,,,space,5.0973,,,,,,target,penultimate,"""Los Osvald, culpables"" —les incrimino seguro.",incriminar,2,,,,,,,,,,,,,,0,10,10,11,1,,,,,
,,,,,,,,,,dis022,02/21/2023_20h22.53.784,spanish_exp2,2022.1.4,Win32,61.00536847,,,space,4.8282,,,,,,target,ultimate,"""Lee estos artículos"" —le encaminó con ilusión.",encaminar,2,,,,,,,,,,,,,,0,11,11,6,1,,,,,
,,,,,,,,,,dis022,02/21/2023_20h22.53.784,spanish_exp2,2022.1.4,Win32,61.00536847,,,space,4.9738,,,,,,target,ultimate,"""Desarrollen esta ecuación"" —los examinó seriosamente.",examinar,2,,,,,,,,,,,,,,0,12,12,4,1,,,,,
,,,,,,,,,,dis022,02/21/2023_20h22.53.784,spanish_exp2,2022.1.4,Win32,61.00536847,,,space,4.4439,,,,,,target,ultimate,"""No me gustan las corridas"" —abominó con certeza.",abominar,2,,,,,,,,,,,,,,0,13,13,0,1,,,,,
,,,,,,,,,,dis022,02/21/2023_20h22.53.784,spanish_exp2,2022.1.4,Win32,61.00536847,,,,,,,,,,,,,,,,,,,,main_trial_block2.xlsx,,,,,,,,,,,,,0,0,0,1,1
,,,,,,,,,,dis022,02/21/2023_20h22.53.784,spanish_exp2,2022.1.4,Win32,61.00536847,,,space,4.7946,,,,,,target,penultimate,"""No habrá más cucarachas"" —extermino complacida.",exterminar,1,,,,,,,,,,,,,,0,0,0,12,1,,,,,
,,,,,,,,,,dis022,02/21/2023_20h22.53.784,spanish_exp2,2022.1.4,Win32,61.00536847,,,space,4.5552,,,,,,target,ultimate,"""Retrato de un hombre triste"" —lo denominó complacido. ",denominar,1,,,,,,,,,,,,,,0,1,1,13,1,,,,,
,,,,,,,,,,dis022,02/21/2023_20h22.53.784,spanish_exp2,2022.1.4,Win32,61.00536847,,,space,5.0095,,,,,,target,penultimate,"""Este no es mi número de teléfono"" —la descamino complacido.",descaminar,1,,,,,,,,,,,,,,0,2,2,2,1,,,,,
,,,,,,,,,,dis022,02/21/2023_20h22.53.784,spanish_exp2,2022.1.4,Win32,61.00536847,,,space,4.986,,,,,,target,ultimate,"""Entraron sin pedir permiso"" —les incriminó seguro.",incriminar,1,,,,,,,,,,,,,,0,3,3,11,1,,,,,
,,,,,,,,,,dis022,02/21/2023_20h22.53.784,spanish_exp2,2022.1.4,Win32,61.00536847,,,space,5.3598,,,,,,target,ultimate,"""El presidente del estado se encuentra enfermo"" —diseminó compungido.",diseminar,1,,,,,,,,,,,,,,0,4,4,3,1,,,,,
,,,,,,,,,,dis022,02/21/2023_20h22.53.784,spanish_exp2,2022.1.4,Win32,61.00536847,,,space,4.4468,,,,,,target,penultimate,"""No son necesarios"" —los elimino segura.",eliminar,1,,,,,,,,,,,,,,0,5,5,10,1,,,,,
,,,,,,,,,,dis022,02/21/2023_20h22.53.784,spanish_exp2,2022.1.4,Win32,61.00536847,,,space,6.3339,,,,,,target,ultimate,"""Me robaron"" —les recriminó con intensidad.",recriminar,1,,,,,,,,,,,,,,0,6,6,7,1,,,,,
,,,,,,,,,,dis022,02/21/2023_20h22.53.784,spanish_exp2,2022.1.4,Win32,61.00536847,,,space,5.9118,,,,,,target,ultimate,"""No puedo cocinar sin quemar la comida"" —me desanimó compungida.",desanimar,1,,,,,,,,,,,,,,0,7,7,9,1,,,,,
,,,,,,,,,,dis022,02/21/2023_20h22.53.784,spanish_exp2,2022.1.4,Win32,61.00536847,,,space,5.3925,,,,,,target,penultimate,"""No me gusta el té de manzanilla"" —abomino con certeza.",abominar,1,,,,,,,,,,,,,,0,8,8,0,1,,,,,
,,,,,,,,,,dis022,02/21/2023_20h22.53.784,spanish_exp2,2022.1.4,Win32,61.00536847,,,space,4.6501,,,,,,target,ultimate,"""Compré esta lámpara ayer"" —iluminó contenta.",iluminar,1,,,,,,,,,,,,,,0,9,9,5,1,,,,,
,,,,,,,,,,dis022,02/21/2023_20h22.53.784,spanish_exp2,2022.1.4,Win32,61.00536847,,,space,4.7841,,,,,,target,penultimate,"""Escriban la respuesta"" —los examino seriosamente.",examinar,1,,,,,,,,,,,,,,0,10,10,4,1,,,,,
,,,,,,,,,,dis022,02/21/2023_20h22.53.784,spanish_exp2,2022.1.4,Win32,61.00536847,,,space,4.9208,,,,,,target,penultimate,"""Confirma la cita para mañana"" —le encamino con ilusión. ",encaminar,1,,,,,,,,,,,,,,0,11,11,6,1,,,,,
,,,,,,,,,,dis022,02/21/2023_20h22.53.784,spanish_exp2,2022.1.4,Win32,61.00536847,,,space,5.4034,,,,,,target,ultimate,"""Con la lluvia el viento es muy fuerte"" —determinó complacida.",determinar,1,,,,,,,,,,,,,,0,12,12,1,1,,,,,
,,,,,,,,,,dis022,02/21/2023_20h22.53.784,spanish_exp2,2022.1.4,Win32,61.00536847,,,space,4.5839,,,,,,target,penultimate,"""Este tiene menos azúcar"" —discrimino tímida.",discriminar,1,,,,,,,,,,,,,,0,13,13,8,1,,,,,
,,,,,,,,,,dis022,02/21/2023_20h22.53.784,spanish_exp2,2022.1.4,Win32,61.00536847,,,,,,,,,,,,,,,,,,,,main_trial_block1.xlsx,,,,,,,,,,,,,0,1,1,0,1
